Time (s),Gyroscope X (deg/s),Gyroscope Y (deg/s),Gyroscope Z (deg/s),Accelerometer X (g),Accelerometer Y (g),Accelerometer Z (g),Magnetometer X (uT),Magnetometer Y (uT),Magnetometer Z (uT),Barometer (hPa)
0.003536450,0.1956229,0.04275978,0.05161398,0.01261884,0.01436351,1.003054,-2.029577,-22.66208,-43.08253,0.01539062
0.023547665,0.2562624,0.2864054,0.05161398,0.02034656,0.006151704,1.03379,-2.029577,-22.66208,-43.08253,0.01539062
0.043559046,-0.1075744,0.4082282,0.1126234,0.02030849,0.01426167,0.9955601,-2.393191,-22.65746,-43.58022,0.01539062
0.063570645,0.01370452,-0.01815162,-0.07040489,0.02031674,-0.001146456,1.003102,-2.393191,-22.65746,-43.58022,0.01539062
0.083581964,0.01370452,0.04275978,-0.009395452,0.02031638,0.006512509,1.00316,-2.390999,-23.03088,-43.08904,0.01539062
0.103593282,0.01370452,-0.01815162,0.1126234,0.02030884,0.00660271,0.9955021,-2.390999,-23.03088,-43.08904,0.01539062
0.123604840,0.07434399,0.4691395,0.05161398,0.01263462,-0.001134826,1.018252,-2.390999,-23.03088,-43.08904,0.01539062
0.143615961,-0.04693495,0.5300509,-0.2534332,0.0126041,0.006884945,0.9876803,-2.393375,-22.66421,-43.08414,0.01539062
0.163627582,0.01370452,0.2864054,-0.009395452,0.02031638,0.006512509,1.00316,-2.393375,-22.66421,-43.08414,0.01539062
0.183639223,0.2562624,-0.01815162,-0.1314143,0.02031638,0.006512509,1.00316,-1.665779,-22.65995,-43.08093,0.01539062
0.203650354,0.1349835,0.04275978,0.1126234,0.01261165,0.006794743,0.9953379,-1.665779,-22.65995,-43.08093,0.01539062
0.223661548,0.01370452,-0.01815162,-0.009395452,0.02030884,0.00660271,0.9955021,-1.665779,-22.65995,-43.08093,0.01539062
0.243673147,0.01370452,0.4082282,-0.07040489,0.02029376,0.006783113,0.9801869,-1.66594,-22.66585,-42.64685,0.01539062
0.263684487,0.1956229,0.1036712,0.1736328,-0.002775206,0.007088608,1.002667,-1.66594,-22.66585,-42.64685,0.01539062
0.283696160,-0.04693495,0.5300509,0.1736328,0.02031638,0.006512509,1.00316,-2.029416,-22.65618,-43.51661,0.01539062
0.303707249,0.01370452,0.2864054,0.1126234,0.02031638,0.006512509,1.00316,-2.029416,-22.65618,-43.51661,0.01539062
0.323718599,0.2562624,0.3473167,0.05161398,0.02032428,-0.001236657,1.010759,-1.665779,-22.65995,-43.08093,0.01539062
0.343729928,0.3169019,0.2864054,-0.07040489,0.02031638,0.006512509,1.00316,-1.665779,-22.65995,-43.08093,0.01539062
0.363741673,0.1349835,0.1036712,0.05161398,0.01261919,0.006704542,1.002995,-1.665779,-22.65995,-43.08093,0.01539062
0.383753033,-0.04693495,0.3473167,-0.009395452,0.01261165,0.006794743,0.9953379,-1.663242,-23.02072,-43.51992,0.01539062
0.403764258,0.3775413,0.225494,0.05161398,0.02030884,0.00660271,0.9955021,-1.663242,-23.02072,-43.51992,0.01539062
0.423775462,0.1956229,0.04275978,0.1126234,0.02031674,-0.001146456,1.003102,-2.029577,-22.66208,-43.08253,0.01539062
0.443786916,0.1349835,0.3473167,0.05161398,0.02031674,-0.001146456,1.003102,-2.029577,-22.66208,-43.08253,0.01539062
0.463798526,0.1349835,0.1645826,0.05161398,0.02032428,-0.001236657,1.010759,-2.029577,-22.66208,-43.08253,0.01539062
0.483809605,0.3169019,0.3473167,-0.009395452,0.0203013,0.006692911,0.9878445,-2.029738,-22.66798,-42.64846,0.01539062
0.503821309,0.07434399,0.1645826,-0.009395452,0.01261165,0.006794743,0.9953379,-2.029738,-22.66798,-42.64846,0.01539062
0.523832711,0.1349835,0.4082282,0.05161398,0.02031638,0.006512509,1.00316,-2.029577,-22.66208,-43.08253,0.01539062
0.543844175,0.3169019,0.3473167,0.1126234,0.01262708,-0.001044624,1.010595,-2.029577,-22.66208,-43.08253,0.01539062
0.563855421,0.1349835,0.04275978,0.1126234,0.01261919,0.006704542,1.002995,-2.029577,-22.66208,-43.08253,0.01539062
0.583866833,0.01370452,0.4082282,-0.1314143,0.01261165,0.006794743,0.9953379,-2.029577,-22.66208,-43.08253,0.01539062
0.603878245,0.07434399,-0.2008858,-0.009395452,0.01262638,0.01427331,1.010711,-2.029577,-22.66208,-43.08253,0.01539062
0.623889554,0.07434399,-0.07906301,0.05161398,0.02033112,0.01399107,1.018533,-1.301981,-22.65782,-43.07933,0.01539062
0.643901039,0.01370452,0.04275978,0.05161398,0.02031674,-0.001146456,1.003102,-1.301981,-22.65782,-43.07933,0.01539062
0.663912451,0.1349835,0.1645826,-0.009395452,0.01261919,0.006704542,1.002995,-1.301981,-22.65782,-43.07933,0.01539062
0.683923676,0.4988203,0.225494,0.05161398,0.004906905,0.007076978,0.9875161,-2.032114,-22.30131,-42.64355,0.01539062
0.703935390,0.01370452,0.1645826,0.1126234,0.02031638,0.006512509,1.00316,-2.032114,-22.30131,-42.64355,0.01539062
0.723946729,0.1349835,0.4082282,0.05161398,0.004936725,0.01437514,1.018204,-2.027201,-23.02875,-43.08744,0.01539062
0.743957829,0.1349835,0.04275978,0.05161398,0.01261884,0.01436351,1.003054,-2.027201,-23.02875,-43.08744,0.01539062
0.763969523,0.1349835,0.04275978,-0.009395452,0.01262673,0.006614341,1.010653,-2.027201,-23.02875,-43.08744,0.01539062
0.783980914,-0.04693495,1.078254,-0.009395452,0.01260445,-0.0007740203,0.9876223,-1.299605,-23.02449,-43.08424,0.01539062
0.803992327,0.2562624,0.225494,-0.009395452,0.02031603,0.01417147,1.003218,-1.299605,-23.02449,-43.08424,0.01539062
0.824003624,0.01370452,0.225494,0.05161398,0.02033901,0.006241905,1.026132,-2.029577,-22.66208,-43.08253,0.01539062
0.844015088,0.1956229,0.1645826,-0.009395452,0.01261884,0.01436351,1.003054,-2.029577,-22.66208,-43.08253,0.01539062
0.864026459,-0.04693495,-0.01815162,-0.009395452,0.02032358,0.01408127,1.010875,-2.029577,-22.66208,-43.08253,0.01539062
0.884037944,0.07434399,-0.1399744,-0.07040489,0.01261884,0.01436351,1.003054,-2.029416,-22.65618,-43.51661,0.01539062
0.904049200,0.3169019,-0.07906301,0.05161398,0.02032393,0.006422308,1.010817,-2.029416,-22.65618,-43.51661,0.01539062
0.924060800,0.07434399,0.3473167,-0.07040489,0.02030884,0.00660271,0.9955021,-2.754797,-23.03301,-43.09064,0.01539062
0.944071972,0.07434399,0.04275978,0.05161398,0.02032393,0.006422308,1.010817,-2.754797,-23.03301,-43.09064,0.01539062
0.964083385,0.1956229,0.225494,-0.1314143,0.02032393,0.006422308,1.010817,-2.754797,-23.03301,-43.09064,0.01539062
0.984094860,0.2562624,0.3473167,-0.009395452,0.02031638,0.006512509,1.00316,-2.029738,-22.66798,-42.64846,0.01539062
1.004106293,0.1349835,0.1036712,0.1126234,0.01262638,0.01427331,1.010711,-2.029738,-22.66798,-42.64846,0.01539062
1.024117799,0.07434399,0.3473167,-0.009395452,0.02030919,-0.001056255,0.995444,-2.027201,-23.02875,-43.08744,0.01539062
1.044129065,0.07434399,0.1645826,0.05161398,0.01262673,0.006614341,1.010653,-2.027201,-23.02875,-43.08744,0.01539062
1.064140405,0.1956229,0.04275978,-0.07040489,0.02031638,0.006512509,1.00316,-1.66594,-22.66585,-42.64685,0.01539062
1.084151754,0.07434399,0.225494,-0.07040489,0.00492199,0.006896575,1.002831,-1.66594,-22.66585,-42.64685,0.01539062
1.104163281,0.2562624,-0.07906301,0.1126234,0.01262673,0.006614341,1.010653,-1.66594,-22.66585,-42.64685,0.01539062
1.124174621,0.4988203,0.2864054,-0.1924237,0.01261884,0.01436351,1.003054,-1.663403,-23.02662,-43.08584,0.01539062
1.144186137,-0.04693495,0.1645826,0.2346423,0.02031638,0.006512509,1.00316,-1.663403,-23.02662,-43.08584,0.01539062
1.164197299,0.2562624,0.1645826,-0.009395452,0.02031638,0.006512509,1.00316,-1.665779,-22.65995,-43.08093,0.01539062
1.184208722,-0.4107718,1.687367,4.688331,-0.04894139,0.1305136,1.025583,-1.665779,-22.65995,-43.08093,0.01539062
1.204220332,-0.4107718,1.017342,2.61401,0.06645521,-0.1778234,0.949149,-1.665779,-22.65995,-43.08093,0.01539062
1.224231671,0.07434399,-1.601848,-5.134188,0.004856567,-0.04590436,0.9335071,-1.665618,-22.65405,-43.51501,0.01539062
1.244242875,0.4381808,-0.7490883,0.3566611,-0.04128191,0.1307726,0.9874596,-1.665618,-22.65405,-43.51501,0.01539062
1.264254454,-0.1682139,0.9564307,-2.205735,0.02803184,-0.0627906,1.018117,-1.665595,-22.6532,-43.57702,0.01539062
1.284265669,0.2562624,-0.2617972,0.1736328,0.03572586,0.00594804,1.018803,-1.665595,-22.6532,-43.57702,0.01539062
1.304277144,0.2562624,-0.8099998,-1.107565,-0.0720528,0.07008862,1.001654,-1.665595,-22.6532,-43.57702,0.01539062
1.324288514,-0.1075744,1.504633,0.47868,0.02800166,-0.0624298,0.9874863,-1.29995,-23.03714,-42.15407,0.01539062
1.344300187,0.2562624,-0.01815162,-0.375452,0.02031463,0.04480733,1.00345,-1.29995,-23.03714,-42.15407,0.01539062
1.364311297,0.01370452,-0.5663542,0.3566611,-0.04125329,0.0002996083,1.009446,-2.029577,-22.66208,-43.08253,0.01539062
1.384322751,-0.04693495,0.7736965,-0.009395452,0.0203099,-0.01637418,0.9953279,-2.029577,-22.66208,-43.08253,0.01539062
1.404334111,0.3775413,0.4082282,0.3566611,0.02031463,0.04480733,1.00345,-2.029577,-22.66208,-43.08253,0.01539062
1.424345628,-0.1075744,0.7127851,1.210793,-0.03357013,-0.02268891,0.9941207,-1.299605,-23.02449,-43.08424,0.01539062
1.444356894,0.1956229,1.200076,0.3566611,0.02799815,0.01415984,0.9880667,-1.299605,-23.02449,-43.08424,0.01539062
1.464368421,0.1956229,0.5300509,0.905746,0.02033253,-0.01664479,1.018301,-0.938344,-22.66159,-42.64365,0.01539062
1.484379614,0.01370452,0.3473167,0.4176706,-0.002722758,0.01411616,1.056328,-0.938344,-22.66159,-42.64365,0.01539062
1.504391152,0.1956229,0.4691395,0.2346423,0.02035007,-0.07043794,1.033209,-0.938344,-22.66159,-42.64365,0.01539062
1.524402533,0.2562624,0.7127851,0.6617082,0.02801655,0.1057968,1.011736,-2.02704,-23.02285,-43.52152,0.01539062
1.544413789,-0.04693495,-0.4445314,0.1126234,-0.002751171,-0.02381785,1.025408,-2.02704,-23.02285,-43.52152,0.01539062
1.564425440,0.2562624,0.1645826,0.9667554,0.004953921,-0.03175905,1.033171,-2.027362,-23.03465,-42.65337,0.01539062
1.584436749,0.3775413,0.4082282,-0.1924237,0.02033761,0.03687776,1.026364,-2.027362,-23.03465,-42.65337,0.01539062
1.604448161,0.1349835,0.1645826,-0.4364614,0.004923749,-0.03139824,1.002541,-2.027362,-23.03465,-42.65337,0.01539062
1.624459521,0.1349835,0.8346079,1.271803,0.01262673,0.006614341,1.010653,-1.665779,-22.65995,-43.08093,0.01539062
1.644471079,0.1956229,0.4691395,-0.9855463,0.02032322,0.02174024,1.010933,-1.665779,-22.65995,-43.08093,0.01539062
1.664482533,0.07434399,0.4691395,0.3566611,0.004915151,-0.008331152,0.9950576,-2.027362,-23.03465,-42.65337,0.01539062
1.684493945,0.7413782,-0.3227086,0.3566611,-0.03352663,0.0150647,1.040356,-2.027362,-23.03465,-42.65337,0.01539062
1.704505233,3.106318,-7.022962,-1.473622,-0.06433981,0.05439826,1.017017,-2.027362,-23.03465,-42.65337,0.01539062
1.724516551,3.288236,-7.266608,-0.3144426,0.02027324,-0.03890007,0.9568661,-1.665618,-22.65405,-43.51501,0.01539062
1.744528057,2.499923,-4.586506,-1.168575,0.004967248,0.006355368,1.048776,-1.665618,-22.65405,-43.51501,0.01539062
1.764539522,2.742481,-10.06853,-2.510782,-0.01807768,-0.0242456,1.093997,-2.029416,-22.65618,-43.51661,0.01539062
1.784550944,6.138291,-11.59132,-5.805291,0.0127362,-0.07889708,1.11722,-2.029416,-22.65618,-43.51661,0.01539062
1.804562294,9.897938,-15.97694,-5.622263,0.01268778,-0.009425198,1.071797,-2.390999,-23.03088,-43.08904,0.01539062
1.824573539,10.68625,-17.01243,-3.608952,0.02810304,0.02821495,1.095388,-2.390999,-23.03088,-43.08904,0.01539062
1.844585004,13.65759,-17.3779,-0.7415086,0.02040584,0.02840698,1.095224,-2.390999,-23.03088,-43.08904,0.01539062
1.864596333,17.11404,-15.61147,1.149784,0.02805884,0.005779268,1.049269,-2.754797,-23.03301,-43.09064,0.01539062
1.884607735,21.84391,-11.71314,1.820887,0.0280341,0.05200366,1.026645,-2.754797,-23.03301,-43.09064,0.01539062
1.904619032,26.14932,-7.936633,2.308963,0.0434206,0.05936876,1.019374,-3.116564,-23.41446,-42.16699,0.01539062
1.924630559,31.54623,-3.733747,1.942906,0.0357234,0.05956079,1.019209,-3.116564,-23.41446,-42.16699,0.01539062
1.944641982,37.00378,-1.053645,2.064925,0.02032182,0.0523761,1.011165,-3.116564,-23.41446,-42.16699,0.01539062
1.964653290,41.30919,2.174659,3.834199,0.02798165,0.0449761,0.9729838,-3.109017,-24.57474,-42.24454,0.01539062
1.984664806,46.46354,6.62119,4.566312,0.03568498,0.07532973,0.9810376,-3.109017,-24.57474,-42.24454,0.01539062
2.004676041,50.16255,7.291215,5.237415,0.03568428,0.09064765,0.9811537,-3.830014,-25.69841,-40.83622,0.01539062
2.024687620,53.0126,8.631267,4.810349,0.02797919,0.09858885,0.97339,-3.830014,-25.69841,-40.83622,0.01539062
2.044698856,56.22649,8.387621,3.102086,0.02028778,0.1369855,0.9811735,-3.830014,-25.69841,-40.83622,0.01539062
2.064710289,57.01481,7.230304,0.6006988,0.02027988,0.1447347,0.9735741,-3.457034,-27.17477,-39.9861,0.01539062
2.084721868,59.13719,6.133899,-2.266744,0.02027883,0.1677116,0.9737482,-3.457034,-27.17477,-39.9861,0.01539062
2.104733165,61.32021,5.707519,-4.89015,0.02028531,0.1905982,0.9815798,-2.72044,-28.65574,-38.63828,0.01539062
2.124744567,64.71602,4.85476,-6.354376,0.02027777,0.1906884,0.9739223,-2.72044,-28.65574,-38.63828,0.01539062
2.144756063,68.90014,4.489291,-7.269517,0.02797427,0.2058143,0.9742026,-2.72044,-28.65574,-38.63828,0.01539062
2.164767465,72.47787,4.732937,-7.208508,0.02026953,0.2060966,0.9663808,-2.711626,-30.14772,-36.79758,0.01539062
2.184778658,77.02583,6.19481,-7.086489,0.02028426,0.2135751,0.9817539,-2.711626,-30.14772,-36.79758,0.01539062
2.204790352,80.60356,5.768431,-6.720433,0.01254689,0.2678309,0.9437083,-2.336219,-32.06451,-35.02302,0.01539062
2.224801649,84.12065,4.184734,-6.598414,0.02023443,0.3136829,0.9365632,-2.336219,-32.06451,-35.02302,0.01539062
2.244813051,87.21326,2.540127,-5.317216,0.02023267,0.3519777,0.9368533,-2.336219,-32.06451,-35.02302,0.01539062
2.264824328,89.45692,2.601038,-3.120876,0.03558075,0.3751117,0.8914106,-1.593164,-34.66994,-31.89161,0.01539062
2.284835720,92.73145,4.184734,-2.205735,0.02015302,0.4447873,0.8609745,-1.593164,-34.66994,-31.89161,0.01539062
2.304847382,93.45913,2.23557,-2.69381,0.004743543,0.4453517,0.8453311,-1.579759,-36.90117,-29.62665,0.01539062
2.324858607,91.94314,-1.114557,-2.876839,0.01244687,0.4757054,0.8533849,-1.579759,-36.90117,-29.62665,0.01539062
2.344870071,90.36652,-4.221038,-2.75482,0.01246739,0.5213885,0.8767058,-1.579759,-36.90117,-29.62665,0.01539062
2.364881514,87.51646,-2.759164,-3.547942,0.02008916,0.5220984,0.8002946,-1.568495,-38.83273,-26.92353,0.01539062
2.384892750,84.42384,0.04275978,-5.439235,0.01239845,0.5451772,0.8079621,-1.568495,-38.83273,-26.92353,0.01539062
2.404904308,82.11954,-0.992734,-9.526867,0.02006196,0.6219356,0.7780765,-1.560003,-40.33651,-24.21467,0.01539062
2.424915637,82.60466,-5.622,-13.24844,0.02000881,0.630226,0.7245317,-1.560003,-40.33651,-24.21467,0.01539062
2.444927028,83.08978,-6.840228,-16.54295,0.004592139,0.6232218,0.7011728,-1.560003,-40.33651,-24.21467,0.01539062
2.464938347,80.96739,-7.205697,-15.5668,0.01994092,0.6310378,0.6556139,-0.8191628,-42.56938,-21.51243,0.01539062
2.484949842,79.63332,-7.81481,-13.79753,0.02001459,0.6684306,0.7324795,-0.8191628,-42.56938,-21.51243,0.01539062
2.504961244,78.42054,-9.763975,-12.51633,0.01998231,0.7147452,0.7021976,-0.4492488,-43.70435,-18.79707,0.01539062
2.524972615,77.69286,-9.824886,-13.18743,0.01994424,0.7228552,0.663968,-0.4492488,-43.70435,-18.79707,0.01539062
2.544983954,77.93542,-8.972127,-13.6145,0.004542309,0.7233295,0.655982,-0.4434319,-44.85242,-15.27717,0.01539062
2.564995356,78.84502,-8.24119,-11.84523,0.01223986,0.7154785,0.6560881,-0.4434319,-44.85242,-15.27717,0.01539062
2.585006862,83.51425,-6.779316,-10.01494,0.01992846,0.7383535,0.648769,-0.4434319,-44.85242,-15.27717,0.01539062
2.605018306,88.36541,-1.419114,-8.672735,0.02751865,0.7700601,0.5419598,0.2831521,-44.88525,-12.54548,0.01539062
2.625029561,93.58041,1.80919,-8.855763,-0.003299608,0.7558712,0.5105569,0.2831521,-44.88525,-12.54548,0.01539062
2.645040943,95.82407,2.174659,-9.282829,-0.01097855,0.6869521,0.5251854,0.6531167,-46.09399,-8.900773,0.01539062
2.665052407,98.189,0.8346079,-8.245668,0.01216845,0.7928799,0.5877507,0.6531167,-46.09399,-8.900773,0.01539062
2.685063777,102.737,2.296481,-7.269517,-0.02641594,0.8026717,0.4874399,0.6531167,-46.09399,-8.900773,0.01539062
2.705075075,107.3456,3.758355,-5.92731,-0.03420224,0.7733103,0.3951532,1.384131,-46.87197,-5.310747,0.01539062
2.725086508,112.318,4.306557,-2.815829,-0.003414861,0.803178,0.3960421,1.384131,-46.87197,-5.310747,0.01539062
2.745097806,114.5617,7.04757,-0.2534332,0.01193181,0.8569478,0.3508315,1.384828,-47.30018,-0.7888527,0.01539062
2.765109281,117.2298,7.534861,1.759878,0.01959708,0.8954114,0.3206557,1.384828,-47.30018,-0.7888527,0.01539062
2.785120599,117.8362,8.753089,5.481453,-0.00354731,0.896619,0.2665605,1.384828,-47.30018,-0.7888527,0.01539062
2.805131897,118.0181,8.753089,8.470915,-0.01127538,0.9124897,0.2358822,1.38075,-46.99589,3.804871,0.01539062
2.825143320,114.6829,9.727672,10.72826,-0.01903468,0.9516981,0.1747479,1.38075,-46.99589,3.804871,0.01539062
2.845154752,110.0743,8.692178,12.9246,-0.01136222,0.9977306,0.1522877,1.008651,-45.94099,6.980553,0.01539062
2.865166133,101.9487,7.778507,16.40214,0.01162869,0.8911918,0.04476231,1.008651,-45.94099,6.980553,0.01539062
2.885177598,93.51977,9.179469,19.26958,-0.01149151,1.022241,0.02228378,1.008651,-45.94099,6.980553,0.01539062
2.905188989,84.84832,10.45861,21.2829,0.00385517,1.076011,-0.0229268,1.001801,-45.20892,11.58,0.01539062
2.925200474,73.63002,9.544937,20.91684,0.01927903,1.090584,0.008147775,1.001801,-45.20892,11.58,0.01539062
2.945211980,59.98614,5.890254,20.91684,0.01156605,1.106274,-0.007215401,0.631917,-44.5266,15.18485,0.01539062
2.965223268,46.22098,0.5300509,20.42876,0.01921834,1.098964,-0.05305445,0.631917,-44.5266,15.18485,0.01539062
2.985234628,32.2739,-5.865646,18.78151,0.01917238,1.114824,-0.09888358,0.631917,-44.5266,15.18485,0.01539062
3.005245947,18.69066,-9.459418,14.75489,0.01912642,1.130683,-0.1447127,-0.4720235,-42.72408,17.0029,0.01539062
3.025257161,5.531896,-12.26134,9.996151,0.03447626,1.115522,-0.1904456,-0.4720235,-42.72408,17.0029,0.01539062
3.045268969,-8.233264,-13.72322,5.908519,0.04990872,1.107028,-0.1518876,-1.204717,-42.00764,17.93968,0.01539062
3.065280131,-19.45156,-12.99228,1.942906,0.04993064,1.122075,-0.1287989,-1.204717,-42.00764,17.93968,0.01539062
3.085291700,-29.27516,-10.67765,-1.107565,0.04223486,1.091631,-0.1291953,-1.204717,-42.00764,17.93968,0.01539062
3.105302904,-35.9455,-5.622,-5.195197,0.02683292,1.092106,-0.1371812,-1.201996,-42.36166,17.00461,0.01539062
3.125314503,-41.82753,-4.160127,-9.038792,0.02690115,1.083635,-0.06832141,-1.201996,-42.36166,17.00461,0.01539062
3.145326260,-48.25531,-2.15005,-12.3333,0.02694711,1.067776,-0.02249229,-1.563257,-42.72456,16.56402,0.01539062
3.165337401,-55.16821,-0.8709111,-14.16358,0.0192729,1.060038,0.0002580946,-1.563257,-42.72456,16.56402,0.01539062
3.185348709,-61.77792,1.504633,-15.13973,0.01928009,1.067607,0.007973665,-1.563257,-42.72456,16.56402,0.01539062
3.205360163,-69.17593,2.23557,-13.91955,0.01931202,1.028951,0.03831362,-0.4637227,-43.78111,13.82562,0.01539062
3.225371534,-73.29942,5.463874,-11.84523,0.01937271,1.020571,0.09951584,-0.4637227,-43.78111,13.82562,0.01539062
3.245383008,-77.54418,10.88499,-7.269517,-0.003790438,0.9378003,0.02180956,-0.09450626,-44.48787,12.01909,0.01539062
3.265394223,-81.48575,16.36701,-1.534631,0.003965342,0.9751813,0.08352419,-0.09450626,-44.48787,12.01909,0.01539062
3.285405624,-84.82092,18.31618,3.102086,-0.02670311,0.9821653,0.205446,-0.08874178,-45.18412,9.280788,0.01539062
3.305416954,-86.57946,17.40251,6.091547,-0.01896785,0.9738632,0.2438399,-0.08874178,-45.18412,9.280788,0.01539062
3.325428480,-87.30714,18.438,10.05716,0.00412339,0.9809462,0.2443904,-0.08874178,-45.18412,9.280788,0.01539062
3.345439799,-89.67207,19.59532,15.73104,-0.003574159,0.9887972,0.2442843,-0.807457,-46.29977,5.603394,0.01539062
3.365451253,-92.21893,18.55982,20.55078,-0.01120066,0.9269056,0.3125736,-0.807457,-46.29977,5.603394,0.01539062
3.385462446,-91.85509,18.31618,22.86914,0.01197461,0.9100194,0.397183,-0.4424863,-46.25465,2.442434,0.01539062
3.405473827,-92.15829,16.48884,24.21135,0.01969373,0.9248747,0.4204358,-0.4424863,-46.25465,2.442434,0.01539062
3.425485396,-92.88597,14.11329,24.76043,-0.003453474,0.987354,0.3668048,-0.4424863,-46.25465,2.442434,0.01539062
3.445496735,-92.64341,12.28595,24.33337,0.03513725,0.8397008,0.466071,-1.891408,-46.94088,-1.666515,0.01539062
3.465508127,-94.88707,16.42793,24.76043,0.03504815,0.8101474,0.3739484,-1.891408,-46.94088,-1.666515,0.01539062
3.485519529,-97.19137,15.81881,25.12649,0.02748953,0.747444,0.5111555,-2.617831,-46.90214,-4.832281,0.01539062
3.505530941,-95.8573,10.45861,21.64895,0.02760127,0.7767268,0.6262507,-2.617831,-46.90214,-4.832281,0.01539062
3.525542259,-94.58387,7.47395,16.70719,0.05064654,0.7996689,0.5809722,-2.617831,-46.90214,-4.832281,0.01539062
3.545553661,-97.73712,8.387621,15.42599,0.02746007,0.7324869,0.4804094,-4.076257,-46.12168,-8.921598,0.01539062
3.565565011,-102.8915,8.022152,13.77874,0.02751779,0.62463,0.5331995,-4.076257,-46.12168,-8.921598,0.01539062
3.585576569,-103.1947,4.42838,8.531924,0.06615427,0.6295248,0.6872292,-4.804872,-45.70953,-12.57854,0.01539062
3.605587856,-103.4979,0.7127851,2.430982,0.1123418,0.6972131,0.6963941,-4.804872,-45.70953,-12.57854,0.01539062
3.625599342,-106.5905,4.367468,0.7227177,0.1122671,0.6827971,0.6197028,-4.804872,-45.70953,-12.57854,0.01539062
3.645610900,-112.4725,7.839418,-0.3144426,0.06604324,0.584924,0.572018,-5.235309,-44.49525,-16.6576,0.01539062
3.665622093,-113.6247,3.636532,-4.402074,0.02012109,0.4834429,0.8306345,-5.235309,-44.49525,-16.6576,0.01539062
3.685633839,-111.6842,-4.891063,-9.16081,0.02781477,0.5598404,0.8313791,-5.241126,-43.34718,-20.1775,0.01539062
3.705645022,-116.2928,-4.586506,-10.99109,0.09704252,0.5969482,0.7872017,-5.241126,-43.34718,-20.1775,0.01539062
3.725656465,-119.3854,-2.941899,-12.02825,0.05081218,0.4761884,0.7316853,-5.241126,-43.34718,-20.1775,0.01539062
3.745667971,-119.3854,-0.992734,-14.46863,0.02011199,0.3534209,0.8143328,-4.822121,-42.1823,-24.74972,0.01539062
3.765679175,-108.5916,-9.033038,-16.54295,0.0202546,0.367025,0.959942,-4.822121,-42.1823,-24.74972,0.01539062
3.785690858,-104.4681,-11.22585,-16.17689,0.03563355,0.3744803,0.9450133,-4.109823,-39.56244,-28.3088,0.01539062
3.805716437,-101.1329,-8.972127,-13.91955,0.04327287,0.3213972,0.883511,-4.109823,-39.56244,-28.3088,0.01539062
3.825727745,-96.58498,-5.500177,-13.43147,0.03554831,0.2606782,0.8522524,-4.109823,-39.56244,-28.3088,0.01539062
3.845739178,-92.34021,-2.332785,-13.43147,0.02790462,0.244921,0.9055749,-5.27293,-37.63088,-31.51308,0.01539062
3.865750465,-86.45818,-4.769241,-12.08926,0.02798759,0.2439287,0.9898078,-5.27293,-37.63088,-31.51308,0.01539062
3.885762211,-82.69854,-4.891063,-8.306678,0.06645235,0.2126033,0.967424,-4.500505,-35.02921,-33.70766,0.01539062
3.905773238,-80.21232,2.357393,-3.486933,0.06639307,0.190348,0.9059896,-4.500505,-35.02921,-33.70766,0.01539062
3.925784702,-74.99732,6.499367,0.1126234,0.02793147,0.1527428,0.9278511,-4.500505,-35.02921,-33.70766,0.01539062
3.945796010,-66.5078,6.864836,0.9667554,0.02030321,0.1291461,0.9964306,-3.788529,-32.42116,-36.39858,0.01539062
3.965807506,-57.22995,4.85476,1.57685,0.02806548,0.189414,1.065977,-3.788529,-32.42116,-36.39858,0.01539062
3.985818876,-50.68089,6.072988,3.102086,0.06651445,0.1735869,1.028394,-3.802491,-30.13472,-38.22864,0.01539062
4.005830174,-40.79666,9.301291,4.871359,0.04341919,0.09000461,1.019606,-3.802491,-30.13472,-38.22864,0.01539062
4.025841566,-30.48795,11.37228,6.94568,0.02802586,0.06741179,1.019103,-3.811328,-28.64359,-40.00733,0.01539062
4.045852895,-22.96865,12.83415,7.86082,0.02033514,0.09049051,1.026771,-3.811328,-28.64359,-40.00733,0.01539062
4.065864369,-18.48133,11.67684,7.494764,0.03573427,0.151288,1.035221,-3.811328,-28.64359,-40.00733,0.01539062
4.085875813,-16.96535,11.06772,6.640633,0.04339989,0.1820926,1.004987,-4.179717,-27.90647,-40.43319,0.01539062
4.105887152,-17.8143,10.82408,5.481453,0.04341638,0.1512763,1.02007,-4.179717,-27.90647,-40.43319,0.01539062
4.125898627,-18.05686,9.788583,3.956218,0.02801655,0.1057968,1.011736,-3.823047,-26.80432,-40.41687,0.01539062
4.145909935,-17.99622,9.118557,1.942906,0.02033409,0.1134674,1.026945,-3.823047,-26.80432,-40.41687,0.01539062
4.165921577,-17.63238,5.098405,0.05161398,0.02036391,0.1207656,1.057633,-3.823047,-26.80432,-40.41687,0.01539062
4.185932968,-19.33029,2.601038,-1.839678,0.02034163,0.1133772,1.034602,-3.461625,-26.43552,-40.41035,0.01539062
4.205944266,-19.39092,1.504633,-3.608952,0.02032006,0.09067091,1.011455,-3.461625,-26.43552,-40.41035,0.01539062
4.225955678,-18.17814,0.5300509,-5.683272,0.01262392,0.06788605,1.011117,-3.465871,-25.68363,-41.76478,0.01539062
4.245967142,-16.54087,-0.2008858,-7.330527,0.01266093,0.08275297,1.049521,-3.465871,-25.68363,-41.76478,0.01539062
4.265978461,-15.08552,-2.57643,-7.269517,0.02036602,0.07481178,1.057285,-3.465871,-25.68363,-41.76478,0.01539062
4.285989988,-13.93337,-1.601848,-6.354376,0.02033761,0.03687776,1.026364,-2.740651,-25.3127,-41.75667,0.01539062
4.306004077,-12.84186,-1.358202,-4.646112,0.02035375,0.01372047,1.041505,-2.740651,-25.3127,-41.75667,0.01539062
4.326015395,-10.96204,-0.5054428,-4.036018,0.02035918,0.05958405,1.049511,-3.106825,-24.94816,-41.75336,0.01539062
4.346026912,-10.96204,-1.662759,-3.669961,0.02032111,0.06769402,1.011281,-3.106825,-24.94816,-41.75336,0.01539062
4.366038314,-10.29501,-1.784582,-3.303905,0.02033006,0.03696796,1.018707,-3.106825,-24.94816,-41.75336,0.01539062
4.386049518,-8.415182,-1.480025,-3.608952,0.02031498,0.03714836,1.003392,-3.472815,-24.57687,-42.24615,0.01539062
4.406061013,-6.899195,-1.662759,-3.120876,0.02033077,0.02165003,1.018591,-3.472815,-24.57687,-42.24615,0.01539062
4.426072488,-4.534256,-0.5054428,-2.998857,0.02032901,0.05994486,1.018881,-3.109017,-24.57474,-42.24454,0.01539062
4.446083838,-4.170419,-1.358202,-1.534631,0.02033042,0.02930899,1.018649,-3.109017,-24.57474,-42.24454,0.01539062
4.466095240,-4.170419,-0.8709111,0.2346423,0.02032322,0.02174024,1.010933,-3.109017,-24.57474,-42.24454,0.01539062
4.486106465,-4.291698,-1.23638,1.332812,0.02032217,0.04471713,1.011107,-3.480178,-23.40984,-42.66468,0.01539062
4.506117846,-5.26193,-0.38362,0.7837271,0.03572199,0.09019665,1.019441,-3.480178,-23.40984,-42.66468,0.01539062
4.526129320,-6.777916,2.966507,-0.07040489,0.02036024,0.03660715,1.049337,-3.841388,-23.8465,-42.17592,0.01539062
4.546140774,-7.020474,7.656684,-0.4364614,0.03575322,0.06685895,1.049897,-3.841388,-23.8465,-42.17592,0.01539062
4.566152093,-8.051345,14.78332,0.9667554,0.03575498,0.02856412,1.049607,-3.841388,-23.8465,-42.17592,0.01539062
4.586163432,-8.111984,21.42266,2.369972,0.02804989,0.03650532,1.041844,-3.480017,-23.40394,-43.09876,0.01539062
4.606174844,-9.74925,30.13299,2.369972,0.02035093,0.07499218,1.04197,-3.480017,-23.40394,-43.09876,0.01539062
4.626186507,-12.96314,39.69608,1.088774,0.0203362,0.06751361,1.026597,-2.39116,-23.03678,-42.65497,0.01539062
4.646197700,-16.29831,49.50282,-0.07040489,0.004913745,0.0223047,0.9952897,-2.39116,-23.03678,-42.65497,0.01539062
4.666209217,-17.5111,57.72585,-2.205735,-0.01812032,0.0834309,1.056522,-2.39116,-23.03678,-42.65497,0.01539062
4.686220587,-19.14837,62.65968,-3.79198,-0.04120874,0.01507633,1.055507,-1.663403,-23.02662,-43.08584,0.01539062
4.706232031,-19.39092,72.34459,-2.632801,-0.06432839,-0.02994055,1.024036,-1.663403,-23.02662,-43.08584,0.01539062
4.726243547,-16.66215,81.54221,-1.595641,-0.1259286,-0.02813368,0.99975,0.878592,-22.27246,-43.49889,0.01539062
4.746254741,-15.63128,87.75517,2.308963,-0.1259653,-0.05065957,0.9612881,0.878592,-22.27246,-43.49889,0.01539062
4.766266049,-11.32588,95.24727,4.566312,-0.2183708,-0.01726831,0.9212624,3.119637,-21.89266,-43.4841,0.01539062
4.786277378,-9.506693,98.11011,5.725491,-0.2569078,-0.05397156,0.8665485,3.119637,-21.89266,-43.4841,0.01539062
4.806288863,-7.323671,101.2166,7.372746,-0.279962,-0.0461875,0.9044017,3.119637,-21.89266,-43.4841,0.01539062
4.826300254,-3.745943,104.8713,8.714952,-0.3107953,-0.06019609,0.8576837,5.66131,-21.15031,-43.02899,0.01539062
4.846311667,-0.1682139,107.9168,8.653943,-0.3492522,-0.03661983,0.887667,5.66131,-21.15031,-43.02899,0.01539062
4.866322777,1.893528,110.0487,9.325047,-0.3031318,0.01656232,0.8277981,9.362138,-21.50122,-42.58353,0.01539062
4.886334429,2.318005,112.3634,8.95899,-0.3955466,0.08833861,0.780405,9.362138,-21.50122,-42.58353,0.01539062
4.906345820,0.5594597,113.277,8.104858,-0.4109282,-0.02625199,0.7868637,9.362138,-21.50122,-42.58353,0.01539062
4.926357222,8.321312,99.93745,6.579623,-0.5877599,-0.1926776,0.9809065,14.09101,-21.49208,-41.19847,0.01539062
4.946368634,10.86817,107.8559,7.494764,-0.4954867,0.0281201,0.9003269,14.09101,-21.49208,-41.19847,0.01539062
4.966380015,11.59584,110.5969,6.762651,-0.6186843,-0.02953787,0.8512905,17.06133,-21.49998,-39.32506,0.01539062
4.986391365,8.867067,106.7595,5.359435,-0.5879928,-0.04445132,0.7522832,17.06133,-21.49998,-39.32506,0.01539062
5.006403006,7.593638,99.1456,2.919057,-0.6878624,0.001653664,0.9495929,17.06133,-21.49998,-39.32506,0.01539062
5.026414189,8.139394,90.55709,-2.75482,-0.6725593,0.01766994,0.858147,19.24805,-22.25089,-37.09286,0.01539062
5.046425737,5.410617,75.39016,-6.293366,-0.5955657,0.0384559,0.8829355,19.24805,-22.25089,-37.09286,0.01539062
5.066437285,3.470155,61.07598,-9.892923,-0.703361,-0.02733531,0.8418269,23.31452,-22.98574,-35.22446,0.01539062
5.086448635,-0.6533297,56.99492,-12.88239,-0.7419673,-0.03259089,0.7184274,23.31452,-22.98574,-35.22446,0.01539062
5.106459932,-5.747046,53.7057,-14.52964,-0.6957316,-0.02671553,0.7730733,23.31452,-22.98574,-35.22446,0.01539062
5.126471313,-9.082216,50.4774,-14.83469,-0.7034447,-0.01102517,0.7577102,25.13063,-22.62696,-33.8473,0.01539062
5.146482757,-11.44716,46.63998,-14.59065,-0.7265506,-0.02558659,0.7417864,25.13063,-22.62696,-33.8473,0.01539062
5.166494252,-14.72169,45.1172,-14.77368,-0.7265581,-0.02549639,0.7341289,26.94217,-21.5281,-32.95641,0.01539062
5.186505550,-15.26744,46.63998,-14.65166,-0.7419823,-0.03241049,0.7031123,26.94217,-21.5281,-32.95641,0.01539062
5.206516962,-13.44826,48.8937,-12.76037,-0.7420273,-0.03952824,0.6571091,26.94217,-21.5281,-32.95641,0.01539062
5.226528302,-10.47692,50.53831,-6.598414,-0.7266685,-0.08541508,0.6188016,28.39701,-21.53222,-32.01984,0.01539062
5.246539662,-4.594895,55.2894,-0.009395452,-0.7266627,-0.04721047,0.6267493,28.39701,-21.53222,-32.01984,0.01539062
5.266551158,1.287133,57.36038,6.274576,-0.7497848,-0.0386146,0.5956846,29.48061,-20.45026,-30.20199,0.01539062
5.286562372,4.804223,63.14697,9.447065,-0.8267187,-0.04480423,0.6322724,29.48061,-20.45026,-30.20199,0.01539062
5.306573815,7.41172,66.43618,11.88744,-0.8267348,-0.02164694,0.6171315,29.48061,-20.45026,-30.20199,0.01539062
5.326585155,9.048985,68.87263,14.08378,-0.8191062,-0.005709242,0.548494,31.72353,-20.45567,-28.82787,0.01539062
5.346596588,10.98945,72.77097,14.93791,-0.8422205,-0.004862539,0.5250288,31.72353,-20.45567,-28.82787,0.01539062
5.366608125,10.92881,75.0856,14.93791,-0.8653488,-0.02681233,0.4860745,32.81882,-21.21382,-26.53848,0.01539062
5.386619433,10.56497,74.11102,14.26681,-0.8576436,-0.03475352,0.4938382,32.81882,-21.21382,-26.53848,0.01539062
5.406630762,11.17137,74.47649,11.27735,-0.8653498,-0.003835433,0.4862486,32.81882,-21.21382,-26.53848,0.01539062
5.426642164,8.078754,79.04484,8.836971,-0.8962424,-0.0400993,0.3780962,35.00315,-21.59806,-24.30137,0.01539062
5.446653639,7.35108,82.33405,10.66725,-0.927001,-0.03969197,0.4080696,35.00315,-21.59806,-24.30137,0.01539062
5.466665093,9.473462,85.68418,11.6434,-0.9347373,-0.008413079,0.3698499,35.36864,-21.98789,-22.44435,0.01539062
5.486676286,9.837298,80.56763,14.32782,-0.8578638,-0.001501831,0.2720019,35.36864,-21.98789,-22.44435,0.01539062
5.506687709,9.958577,79.65395,13.90075,-0.9501623,-9.246171E-06,0.3389494,36.46361,-22.75784,-19.2868,0.01539062
5.526699184,7.836196,77.46114,11.27735,-0.9347916,0.02285418,0.3164793,36.46361,-22.75784,-19.2868,0.01539062
5.546710586,5.168059,73.38008,8.714952,-0.9963753,-0.006155205,0.3072762,36.46361,-22.75784,-19.2868,0.01539062
5.566721977,3.106318,66.55801,5.603472,-0.9887424,-0.08212506,0.2379422,37.61924,-23.52658,-16.19099,0.01539062
5.586733441,2.499923,58.5177,3.102086,-0.927177,0.0159954,0.2323526,37.61924,-23.52658,-16.19099,0.01539062
5.606744656,1.347773,53.1575,1.088774,-0.9041022,0.05389452,0.2178203,38.70997,-23.54464,-14.38787,0.01539062
5.626756245,0.9232966,47.06636,-1.595641,-0.9348985,0.05475286,0.209506,38.70997,-23.54464,-14.38787,0.01539062
5.646767720,1.347773,41.21886,-5.866301,-0.9579819,0.03992083,0.2165549,38.70997,-23.54464,-14.38787,0.01539062
5.666779080,0.07434399,33.9095,-10.19797,-0.9195185,0.03923126,0.1944032,39.07585,-23.99559,-12.53166,0.01539062
5.686790471,-2.472514,31.04666,-14.40762,-0.9426249,0.0323288,0.1785376,39.07585,-23.99559,-12.53166,0.01539062
5.706801852,-6.899195,24.65096,-17.27506,-0.9733989,0.04057549,0.1932539,38.71411,-24.37619,-11.67002,0.01539062
5.726813244,-8.172625,16.24519,-19.41039,-0.9734058,0.02534777,0.1854803,38.71411,-24.37619,-11.67002,0.01539062
5.746824688,-7.323671,11.85957,-20.63058,-0.9887919,0.01032371,0.1926934,38.71411,-24.37619,-11.67002,0.01539062
5.766836152,-7.626869,8.753089,-19.59342,-1.019579,-0.02720298,0.1917465,39.79779,-23.21542,-11.15358,0.01539062
5.786847512,-7.808787,5.951165,-16.60396,-1.034943,-0.03483868,0.2219902,39.79779,-23.21542,-11.15358,0.01539062
5.806858872,-6.595998,1.80919,-13.30945,-1.058042,-0.02651342,0.2138982,40.52048,-22.48372,-10.70648,0.01539062
5.826870326,-5.080011,-2.028228,-9.770905,-1.042641,-0.01166976,0.2220002,40.52048,-22.48372,-10.70648,0.01539062
5.846881696,-2.108677,-6.292026,-4.402074,-1.042634,-0.01175996,0.2296577,40.52048,-22.48372,-10.70648,0.01539062
5.866892848,1.832889,-10.31218,0.4176706,-1.06574,-0.01100346,0.2138501,40.51588,-21.74447,-11.13074,0.01539062
5.886904302,4.986141,-18.71795,5.115396,-1.004171,0.002868404,0.2076221,40.51588,-21.74447,-11.13074,0.01539062
5.906915912,8.381951,-31.50934,8.714952,-1.104174,-0.003015737,0.26669,40.15227,-21.73985,-11.62843,0.01539062
5.926927168,10.74689,-45.15349,12.07047,-1.088787,-0.003309602,0.2593608,40.15227,-21.73985,-11.62843,0.01539062
5.946938560,11.11073,-57.15304,15.18195,-1.058006,0.00367143,0.252418,40.15227,-21.73985,-11.62843,0.01539062
5.966949941,10.1405,-67.20341,17.80536,-1.057999,0.01889916,0.2601916,40.51639,-21.72592,-12.49499,0.01539062
5.986961374,8.988346,-80.29937,18.35444,-1.10412,-0.01896507,0.3201766,40.51639,-21.72592,-12.49499,0.01539062
6.006972797,6.19893,-97.47638,17.13425,-1.057902,0.02538551,0.3597976,38.70487,-22.82394,-13.44789,0.01539062
6.026984136,3.833991,-112.5824,14.8159,-1.011725,0.001346617,0.352951,38.70487,-22.82394,-13.44789,0.01539062
6.046995580,0.07434399,-124.3992,12.55855,-0.9270498,0.03743887,0.3627048,38.70487,-22.82394,-13.44789,0.01539062
6.067006940,-5.20129,-134.4496,9.081009,-0.91933,0.03697623,0.3858416,37.98368,-23.50085,-17.9257,0.01539062
6.087018321,-9.870529,-143.6472,4.139246,-0.9038821,0.02064283,0.4396566,37.98368,-23.50085,-17.9257,0.01539062
6.107030045,-12.59931,-152.8448,-1.534631,-0.8730477,0.01167453,0.4862005,36.46922,-23.45999,-21.59102,0.01539062
6.127041322,-14.17593,-160.5806,-6.354376,-0.8191454,0.02537762,0.5104384,36.46922,-23.45999,-21.59102,0.01539062
6.147052714,-17.26854,-163.5043,-9.831914,-0.7498397,0.007970592,0.5424301,36.46922,-23.45999,-21.59102,0.01539062
6.167064022,-19.75476,-161.3724,-12.63835,-0.7036257,-0.00886034,0.5739293,33.19687,-23.41172,-26.56632,0.01539062
6.187075445,-19.39092,-159.4233,-14.8957,-0.7035719,-0.03246864,0.627358,33.19687,-23.41172,-26.56632,0.01539062
6.207087055,-16.41959,-159.0578,-16.35992,-0.6881315,-0.04871184,0.6735154,30.64503,-22.25833,-31.5857,0.01539062
6.227098269,-13.14506,-157.4132,-16.66497,-0.611116,-0.01287856,0.7213926,30.64503,-22.25833,-31.5857,0.01539062
6.247109619,-9.931169,-149.0683,-15.74983,-0.5572123,-0.02981132,0.7453985,26.58141,-21.87245,-34.76125,0.01539062
6.267120969,-7.748148,-138.1043,-14.04156,-0.5187331,-0.04599921,0.7384458,26.58141,-21.87245,-34.76125,0.01539062
6.287132454,-5.928964,-127.6275,-10.44201,-0.457125,-0.05555525,0.7703313,26.58141,-21.87245,-34.76125,0.01539062
6.307143981,-2.048037,-117.8817,-7.02548,-0.4493912,-0.03322139,0.8089573,22.15162,-21.12203,-37.93348,0.01539062
6.327155237,2.014807,-111.0596,-2.449773,-0.4108757,-0.01922444,0.8405244,22.15162,-21.12203,-37.93348,0.01539062
6.347166503,4.440386,-97.65912,1.027765,-0.387753,-0.04313823,0.871473,19.23717,-20.38043,-39.79681,0.01539062
6.367177884,7.957475,-85.53775,2.980067,-0.3877468,-0.01259258,0.8793627,19.23717,-20.38043,-39.79681,0.01539062
6.387189203,11.8384,-79.56843,4.871359,-0.3415561,-0.01383498,0.8880053,19.23717,-20.38043,-39.79681,0.01539062
6.407200730,16.38636,-73.90367,5.298425,-0.3415784,-0.02122334,0.8649747,15.53907,-20.38354,-41.17734,0.01539062
6.427212090,19.96409,-68.78712,4.871359,-0.3030773,-0.0223639,0.8811107,15.53907,-20.38354,-41.17734,0.01539062
6.447223544,22.57159,-64.9497,4.505302,-0.2722658,-0.02340264,0.90474,13.35644,-20.39042,-41.62103,0.01539062
6.467234873,24.75461,-62.57415,3.285114,-0.2491973,-0.01604917,0.882318,13.35644,-20.39042,-41.62103,0.01539062
6.487246337,23.11734,-61.90413,1.820887,-0.2568553,-0.046944,0.9202093,13.35644,-20.39042,-41.62103,0.01539062
6.507257770,20.44921,-59.65041,-2.937848,-0.2337744,0.02150078,0.9135666,10.45081,-21.14081,-41.64366,0.01539062
6.527269235,15.11293,-61.90413,-6.415386,-0.164523,0.03536101,0.8921878,10.45081,-21.14081,-41.64366,0.01539062
6.547280803,10.92881,-61.90413,-10.86907,-0.1490988,0.0422751,0.9232043,8.214679,-22.24806,-42.10234,0.01539062
6.567292049,9.412823,-68.29982,-13.43147,-0.1876053,-0.002447911,0.8990626,8.214679,-22.24806,-42.10234,0.01539062
6.587303461,9.048985,-78.95932,-12.45532,-0.1414738,-0.02594559,0.8462708,8.214679,-22.24806,-42.10234,0.01539062
6.607314800,7.593638,-87.12144,-9.465858,-0.07219294,0.002871764,0.8556381,5.675243,-23.36214,-42.19028,0.01539062
6.627326202,3.288236,-87.97421,-8.916773,-0.08752225,0.06371574,0.9246919,5.675243,-23.36214,-42.19028,0.01539062
6.647337687,-0.4714113,-92.7862,-10.381,-0.07203735,0.06224925,1.016911,3.126443,-23.00448,-42.63067,0.01539062
6.667348912,-8.839659,-88.52241,-11.17412,0.01266233,0.05211712,1.049289,3.126443,-23.00448,-42.63067,0.01539062
6.687360408,-18.23878,-77.13197,-9.587876,0.04352726,0.03512904,1.126405,3.126443,-23.00448,-42.63067,0.01539062
6.707371810,-26.4251,-61.17319,-7.391536,0.09746692,0.0560401,1.188989,0.5214396,-23.39231,-42.21298,0.01539062
6.727383211,-30.48795,-47.40722,-4.463084,0.1360071,0.02381267,1.24318,0.5214396,-23.39231,-42.21298,0.01539062
6.747394520,-28.60813,-32.72757,-0.1924237,0.1360247,-0.02998048,1.258089,-2.757012,-22.66044,-43.51981,0.01539062
6.767405921,-26.78894,-13.84504,6.335585,0.1745099,-0.01562272,1.259026,-2.757012,-22.66044,-43.51981,0.01539062
6.787417198,-24.54528,6.560279,14.63287,0.1821687,-4.581921E-05,1.221018,-2.757012,-22.66044,-43.51981,0.01539062
6.807428496,-23.15057,26.23466,23.05217,0.1051594,-0.005333447,1.181031,-3.48936,-21.93135,-43.5132,0.01539062
6.827440022,-21.75587,40.42702,31.83753,0.03580235,-0.01793086,1.095204,-3.48936,-21.93135,-43.5132,0.01539062
6.847451518,-18.84517,51.0256,40.7449,0.02033393,-0.04728064,1.018068,-3.50124,-20.09799,-43.48866,0.01539062
6.867462847,-11.93227,57.17765,47.88301,-0.04131801,-0.06781925,0.9400054,-3.50124,-20.09799,-43.48866,0.01539062
6.887474093,-1.926759,60.04049,51.60458,-0.05678995,-0.02057939,0.86345,-2.775675,-19.71442,-44.41072,0.01539062
6.907485630,8.018114,56.44671,54.89909,-0.04145589,-0.02024185,0.8025181,-2.775675,-19.71442,-44.41072,0.01539062
6.927497001,18.87258,48.52823,57.27846,-0.03376589,-0.02800265,0.7949667,-2.775675,-19.71442,-44.41072,0.01539062
6.947508496,28.2717,37.38145,57.82755,-0.07225258,-0.01172455,0.7942619,-1.325235,-18.97255,-44.39449,0.01539062
6.967519804,34.76012,22.39724,56.42433,-0.1030037,-0.01140743,0.8318927,-1.325235,-18.97255,-44.39449,0.01539062
6.987531144,39.36872,6.682102,51.23853,-0.1029875,-0.03456472,0.8470337,-0.9544702,-20.07634,-43.97354,0.01539062
7.007542556,35.73035,-1.906405,46.47979,-0.07984382,-0.0204543,0.9012451,-0.9544702,-20.07634,-43.97354,0.01539062
7.027553822,24.93653,-0.1399744,37.45039,-0.06435998,0.00105611,0.993638,-0.9544702,-20.07634,-43.97354,0.01539062
7.047565380,8.685149,3.392886,28.54302,-0.07971524,-0.02964669,1.031365,-1.675099,-21.18652,-43.55739,0.01539062
7.067576803,-7.748148,3.636532,20.73381,-0.05660928,-0.01508526,1.047289,-1.675099,-21.18652,-43.55739,0.01539062
7.087588122,-21.21011,5.098405,10.3012,-0.02581857,0.1065998,1.056532,-2.764117,-21.55958,-43.5671,0.01539062
7.107599669,-19.57284,-3.916481,-2.327754,0.02037688,0.1665389,1.073296,-2.764117,-21.55958,-43.5671,0.01539062
7.127611113,-15.51,-12.50499,-17.45809,0.02040041,-0.0174566,1.087218,-2.764117,-21.55958,-43.5671,0.01539062
7.147622442,-16.66215,-6.231114,-37.04212,-0.06425051,-0.0844553,1.100205,-2.761764,-21.92709,-43.51,0.01539062
7.167633854,-16.48023,-5.073798,-53.94173,-0.1335239,-0.1133629,1.098495,-2.761764,-21.92709,-43.51,0.01539062
7.187645246,-17.02599,-7.81481,-69.13308,-0.1181891,-0.1283432,1.037447,-2.763956,-21.55368,-44.00118,0.01539062
7.207656772,-17.02599,-7.510253,-82.73818,-0.08739454,-0.09090676,1.046052,-2.763956,-21.55368,-44.00118,0.01539062
7.227668133,-14.78233,-8.24119,-95.00108,-0.04893732,-0.122142,1.01601,-2.763956,-21.55368,-44.00118,0.01539062
7.247679409,-12.23547,-8.24119,-104.4575,-0.01813099,-0.1767033,1.031576,-1.677314,-20.81394,-43.98656,0.01539062
7.267690957,-5.504488,-6.962051,-112.3278,-0.03354011,-0.1837977,1.015875,-1.677314,-20.81394,-43.98656,0.01539062
7.287702369,-0.04693495,-4.830152,-115.8663,-0.1181996,-0.2277294,1.021378,-0.590672,-20.07421,-43.97194,0.01539062
7.307713657,6.017012,-3.794658,-116.9645,-0.03357818,-0.1756878,0.9776447,-0.590672,-20.07421,-43.97194,0.01539062
7.327725142,9.291543,-1.358202,-117.1475,-0.01045099,-0.1307611,1.016773,-0.590672,-20.07421,-43.97194,0.01539062
7.347736523,12.74799,-1.23638,-115.5003,-0.04128538,-0.1217928,0.9702293,1.592438,-20.04963,-44.83047,0.01539062
7.367748039,16.32572,-1.906405,-112.0227,0.02030044,-0.1387372,0.9790842,1.592438,-20.04963,-44.83047,0.01539062
7.387759462,20.44921,-6.352937,-109.6433,0.01257483,-0.1764792,0.9479997,3.105565,-19.68588,-43.95074,0.01539062
7.407770635,21.29816,-8.789392,-111.5346,0.0203022,-0.177032,0.978794,3.105565,-19.68588,-43.95074,0.01539062
7.427782120,18.26619,-7.81481,-121.7842,-0.1105317,-0.08213049,0.9996721,3.105565,-19.68588,-43.95074,0.01539062
7.447793501,15.90125,-13.47957,-136.5485,-0.172146,-0.1031201,0.9598967,5.288169,-19.67985,-43.44504,0.01539062
7.467804851,9.352183,-21.15441,-148.0793,-0.08744805,-0.07495743,0.9925651,5.288169,-19.67985,-43.44504,0.01539062
7.487816451,3.712712,-27.36737,-161.0133,-0.01813837,-0.01586502,1.032795,6.740986,-19.30465,-43.43372,0.01539062
7.507827665,-7.626869,-29.80382,-171.934,0.01264252,-0.00888399,1.025852,6.740986,-19.30465,-43.43372,0.01539062
7.527839088,-19.63348,-28.52468,-181.6955,-0.002812217,-0.007778314,0.9642633,6.740986,-19.30465,-43.43372,0.01539062
7.547850458,-29.09324,-30.90023,-187.4914,0.01253078,-0.03816682,0.9107567,8.557783,-18.92059,-43.91689,0.01539062
7.567862027,-40.06898,-30.53476,-187.9794,0.02025342,-0.09990118,0.9334292,8.557783,-18.92059,-43.91689,0.01539062
7.587873428,-48.07339,-25.23547,-188.5895,0.08184136,-0.1627993,0.9419359,10.78711,-16.70152,-44.31165,0.01539062
7.607884716,-50.98409,-20.42347,-190.3588,0.09725083,-0.1633638,0.9575793,10.78711,-16.70152,-44.31165,0.01539062
7.627895972,-51.7724,-16.95152,-189.8707,0.05879537,-0.1704234,0.9873306,11.13185,-13.69226,-45.20013,0.01539062
7.647907457,-51.28729,-15.36782,-184.3799,0.02034026,-0.185142,1.017024,11.13185,-13.69226,-45.20013,0.01539062
7.667918932,-44.43503,-17.56063,-179.0721,0.02032412,-0.1619847,1.001883,11.13185,-13.69226,-45.20013,0.01539062
7.687930406,-37.9466,-19.20524,-171.3239,0.09722137,-0.1783209,0.9268332,12.55845,-9.210759,-46.00216,0.01539062
7.707941590,-36.43062,-7.875722,-164.9179,0.1126545,-0.2021329,0.9652751,12.55845,-9.210759,-46.00216,0.01539062
7.727952992,-29.51772,4.367468,-164.1858,0.06646275,-0.1779136,0.9568065,12.53488,-5.537295,-46.44917,0.01539062
7.747964487,-21.87714,10.03223,-154.3022,0.05880397,-0.1934905,0.994814,12.53488,-5.537295,-46.44917,0.01539062
7.767975826,-12.9025,15.57516,-140.5141,0.02034097,-0.2004599,1.016908,12.53488,-5.537295,-46.44917,0.01539062
7.787987260,-2.533153,16.85431,-131.9728,0.02799799,-0.1465882,0.9791903,12.88204,-2.968461,-46.41321,0.01539062
7.807998713,4.440386,23.92003,-127.8242,0.08952995,-0.1399243,0.9346167,12.88204,-2.968461,-46.41321,0.01539062
7.828009969,7.169162,33.66585,-122.5163,0.08187871,-0.1555914,0.9802816,13.22372,0.382185,-45.43645,0.01539062
7.848021486,11.77776,36.52869,-117.8796,0.06646924,-0.1550269,0.9646382,13.22372,0.382185,-45.43645,0.01539062
7.868032815,15.11293,42.19345,-116.7204,0.05103502,-0.1082381,0.9263704,13.22372,0.382185,-45.43645,0.01539062
7.888044175,14.32462,48.04094,-117.3915,0.02796395,-0.06197879,0.9491986,13.94435,1.49236,-45.8526,0.01539062
7.908055597,12.68735,52.30474,-116.1713,0.02031955,-0.06241817,1.002637,13.94435,1.49236,-45.8526,0.01539062
7.928067031,11.59584,51.26925,-111.9617,-0.002720296,-0.03949658,1.055921,14.66687,2.218163,-44.97143,0.01539062
7.948078453,12.1416,47.24909,-104.8846,0.004948136,-0.06996366,1.025223,14.66687,2.218163,-44.97143,0.01539062
7.968089834,10.80753,43.71623,-101.4681,0.05110079,-0.0630961,0.9956365,14.66687,2.218163,-44.97143,0.01539062
7.988101184,8.685149,46.82271,-102.4442,0.04334939,-0.0316368,0.9421016,16.90282,3.318669,-44.01666,0.01539062
8.008112700,5.835093,46.09177,-98.23458,-0.0258054,-0.01603379,1.063261,16.90282,3.318669,-44.01666,0.01539062
8.028124155,5.835093,37.86874,-89.69326,-0.1104832,0.009145662,1.053971,17.62312,4.417044,-43.56465,0.01539062
8.048135442,2.742481,27.27015,-82.1891,-0.1413642,0.04929103,0.9617142,17.62312,4.417044,-43.56465,0.01539062
8.068146844,-2.411874,23.7982,-76.3932,-0.164472,0.07302442,0.9460807,17.62312,4.417044,-43.56465,0.01539062
8.088158245,-8.233264,20.81355,-67.3028,-0.2182995,0.07373725,0.9985343,18.70446,5.945333,-43.10532,0.01539062
8.108169595,-9.627972,13.80873,-55.0399,-0.2413236,0.08116049,1.067018,18.70446,5.945333,-43.10532,0.01539062
8.128181070,-8.051345,5.890254,-38.62836,-0.1951325,0.07225914,1.075602,19.42474,7.042864,-42.5913,0.01539062
8.148192389,-6.959835,2.418304,-23.49803,-0.1566839,0.06409102,1.038077,19.42474,7.042864,-42.5913,0.01539062
8.168203728,-6.838556,1.565545,-8.794754,-0.1643735,0.06419285,1.045571,19.42474,7.042864,-42.5913,0.01539062
8.188215213,-5.807685,-0.4445314,5.176406,-0.1643574,0.04103554,1.060712,19.05603,7.768179,-42.14901,0.01539062
8.208226469,-2.593793,-3.00281,18.47646,-0.1643416,0.02553722,1.075911,19.05603,7.768179,-42.14901,0.01539062
8.228238173,1.165854,-4.830152,29.21412,-0.110476,0.01671442,1.061687,19.05365,8.134851,-42.1441,0.01539062
8.248249252,3.833991,-5.134709,37.32838,-0.06429893,-0.01498343,1.054782,19.05365,8.134851,-42.1441,0.01539062
8.268260696,6.623407,-6.47476,44.34446,-0.07199471,-0.04542725,1.054386,19.05365,8.134851,-42.1441,0.01539062
8.288272014,9.412823,-7.875722,50.3844,-0.102791,-0.04456892,1.046072,20.14486,8.134497,-41.64321,0.01539062
8.308283458,12.38416,-11.83496,56.85139,-0.1027774,-0.01411346,1.061619,20.14486,8.134497,-41.64321,0.01539062
8.328294943,14.4459,-17.07334,63.74546,-0.1259081,0.0175495,1.023071,19.78378,7.778337,-42.57989,0.01539062
8.348306220,15.23421,-23.65177,72.10374,-0.1336053,0.01774153,1.022907,19.78378,7.778337,-42.57989,0.01539062
8.368317653,14.93101,-30.2302,82.23132,-0.1182263,0.02519683,1.007978,19.43203,5.94875,-43.0401,0.01539062
8.388328971,13.53631,-34.67673,91.74879,-0.1028696,0.02526377,0.9700186,19.43203,5.94875,-43.0401,0.01539062
8.408340581,10.80753,-34.67673,99.19193,-0.07977121,0.0399154,0.9782847,19.43203,5.94875,-43.0401,0.01539062
8.428351921,8.200033,-34.55491,107.1842,-0.08746806,0.03244846,0.9780625,19.44465,4.066923,-43.99563,0.01539062
8.448363114,5.653175,-36.80863,116.8237,-0.06436068,0.01637404,0.9937541,19.44465,4.066923,-43.99563,0.01539062
8.468374547,5.046781,-35.95587,125.182,-0.01819977,0.00783348,0.9717085,18.0015,2.230944,-44.46066,0.01539062
8.488386001,4.440386,-32.24028,133.0522,-0.002812217,-0.007778314,0.9642633,18.0015,2.230944,-44.46066,0.01539062
8.508397445,6.865964,-30.53476,143.2407,0.02031709,-0.008805419,1.003044,18.0015,2.230944,-44.46066,0.01539062
8.528408690,9.897938,-31.50934,156.9069,0.0587801,-0.001836017,0.9809498,16.56075,0.0291357,-44.9926,0.01539062
8.548420217,11.59584,-26.88008,170.1459,0.1203419,0.01212605,0.9670643,16.56075,0.0291357,-44.9926,0.01539062
8.568431505,10.62561,-18.83977,178.3822,0.02800166,-0.0624298,0.9874863,16.21379,-2.607554,-44.53329,0.01539062
8.588442938,13.23311,-16.8297,183.1409,0.02034218,-0.06268877,1.02561,16.21379,-2.607554,-44.53329,0.01539062
8.608454360,18.99386,-19.08342,187.0455,0.02031201,-0.06232797,0.9949797,16.21379,-2.607554,-44.53329,0.01539062
8.628465679,22.57159,-18.71795,192.3533,0.02031744,-0.01646438,1.002985,13.98497,-4.808076,-45.50278,0.01539062
8.648477133,21.60136,-22.85992,199.6134,0.02800604,0.006410677,0.9956663,13.98497,-4.808076,-45.50278,0.01539062
8.668488576,22.51095,-15.36782,198.4543,0.1357933,-0.08079699,1.020299,13.27385,-7.384941,-45.10626,0.01539062
8.688499989,26.51315,-0.6272656,195.4038,0.0434129,-0.1012891,1.00284,13.27385,-7.384941,-45.10626,0.01539062
8.708511349,31.66751,-0.07906301,193.9396,0.0203292,-0.1084621,1.009946,13.27385,-7.384941,-45.10626,0.01539062
8.728522761,37.97401,-0.01815162,194.9157,0.02030376,-0.04691984,0.9874382,10.74683,-10.38844,-45.59163,0.01539062
8.748534225,38.39849,-1.297291,197.7222,0.07415468,-0.06322119,0.9578413,10.74683,-10.38844,-45.59163,0.01539062
8.768545627,41.12727,2.540127,196.0139,0.09726486,-0.1405673,0.9730685,10.04265,-14.07206,-44.71375,0.01539062
8.788556977,44.64436,8.509443,190.5841,0.08183135,-0.1090964,0.9346846,10.04265,-14.07206,-44.71375,0.01539062
8.808568358,44.64436,18.01162,183.934,0.08949592,-0.05531488,0.9046249,10.04265,-14.07206,-44.71375,0.01539062
8.828579781,43.31029,24.77279,178.4432,0.05102502,-0.05453512,0.9191191,6.726913,-17.09788,-43.90036,0.01539062
8.848591109,43.43157,26.05193,174.8436,0.05106957,-0.0397584,0.9651804,6.726913,-17.09788,-43.90036,0.01539062
8.868602772,43.7954,29.09749,167.9496,0.08189572,-0.03331858,1.004183,5.290384,-20.05242,-43.01587,0.01539062
8.888613882,44.0986,31.96033,157.517,0.04340149,-0.01695028,0.9958205,5.290384,-20.05242,-43.01587,0.01539062
8.908625284,40.46023,35.24955,146.7183,0.04335623,-0.01640907,0.9498752,5.290384,-20.05242,-43.01587,0.01539062
8.928636769,34.03245,36.65051,136.5297,0.02794711,-0.02350357,0.9341738,2.030297,-22.27752,-42.62566,0.01539062
8.948648129,31.00047,36.95507,123.5347,0.02029919,0.0526467,0.9881927,2.030297,-22.27752,-42.62566,0.01539062
8.968659635,27.11955,33.05674,111.2718,-0.0258675,0.02298263,1.002291,0.8878255,-23.82471,-41.72102,0.01539062
8.988670923,21.84391,27.63562,95.95844,0.004936725,0.01437514,1.018204,0.8878255,-23.82471,-41.72102,0.01539062
9.008682335,16.7502,22.57998,76.55743,0.004920935,0.02987346,1.003005,0.8878255,-23.82471,-41.72102,0.01539062
9.028693653,11.23201,17.64615,58.55966,-0.002817493,0.1071061,0.9651338,-0.5580239,-25.30582,-41.31298,0.01539062
9.048705097,-0.7746086,12.5296,42.6362,0.004898307,0.03014407,0.9800326,-0.5580239,-25.30582,-41.31298,0.01539062
9.068716624,-8.960938,6.925747,27.81091,-0.01816276,0.0227004,1.010112,-1.647226,-25.68563,-40.82661,0.01539062
9.088727880,-15.99512,0.8955193,13.83974,0.004933559,0.08330581,1.018727,-1.647226,-25.68563,-40.82661,0.01539062
9.108739386,-22.18034,-2.941899,0.2956517,-0.002756799,0.09872558,1.026336,-1.644666,-26.04556,-41.32761,0.01539062
9.128750913,-26.97086,-10.55582,-10.19797,0.02030095,0.01435188,0.9879025,-1.644666,-26.04556,-41.32761,0.01539062
9.148762262,-30.36667,-16.52514,-16.17689,0.05109904,-0.02480128,0.9959266,-1.644666,-26.04556,-41.32761,0.01539062
9.168773664,-33.03481,-19.87527,-20.56957,0.04338605,-0.009110915,0.9805633,-2.013216,-25.31434,-41.31939,0.01539062
9.188785170,-34.73271,-24.50453,-22.52187,0.05878869,-0.02490311,0.9884332,-2.013216,-25.31434,-41.31939,0.01539062
9.208796489,-34.30824,-27.0019,-24.16913,0.09729906,-0.06442869,1.011937,-2.38126,-24.56458,-42.67542,0.01539062
9.228807776,-12.65994,7.291215,-22.88793,0.5434871,-0.5548341,0.7421317,-2.38126,-24.56458,-42.67542,0.01539062
9.248819147,1.347773,3.697443,18.23242,0.03574583,0.2276972,1.051116,-2.38126,-24.56458,-42.67542,0.01539062
9.268830496,8.50323,12.77324,15.67003,0.05871397,-0.03931902,0.9117419,-3.11638,-23.40771,-42.66308,0.01539062
9.288841815,-0.2288534,9.544937,12.31451,0.06652571,-0.07149993,1.026537,-3.11638,-23.40771,-42.66308,0.01539062
9.308853237,2.196726,12.16413,1.881897,0.004898307,0.03014407,0.9800326,-3.118756,-23.04104,-42.65817,0.01539062
9.328864744,-3.200187,9.362203,-0.6804992,0.07428256,-0.05709565,1.088077,-3.118756,-23.04104,-42.65817,0.01539062
9.348876041,3.712712,14.72241,1.881897,0.02797622,-0.0008874824,0.964978,-3.118756,-23.04104,-42.65817,0.01539062
9.368887370,10.32241,14.53967,4.322274,0.02024674,0.04561914,0.9345319,-2.388784,-23.40345,-42.65987,0.01539062
9.388899064,-3.867222,6.438456,1.210793,0.05907074,0.07123578,1.280174,-2.388784,-23.40345,-42.65987,0.01539062
9.408910455,-3.927861,-0.9318225,-11.17412,0.1048554,-0.1165196,0.8662014,-1.661027,-23.39329,-43.09075,0.01539062
9.428921628,2.075447,0.1036712,-0.2534332,-0.01047995,0.007370843,0.9948453,-1.661027,-23.39329,-43.09075,0.01539062
9.448933165,-0.1682139,-1.419114,-2.998857,0.004922694,-0.008421353,1.002715,-1.661027,-23.39329,-43.09075,0.01539062
9.468944484,4.561665,-5.378355,0.2956517,0.01259691,-0.0006838189,0.9799647,-2.024825,-23.39542,-43.09235,0.01539062
9.488955865,5.349978,-4.038304,1.271803,0.01262708,-0.001044624,1.010595,-2.024825,-23.39542,-43.09235,0.01539062
9.508967371,0.9839361,-2.210962,2.186944,0.02797165,0.09867906,0.9657325,-2.024825,-23.39542,-43.09235,0.01539062
9.528978825,0.01370452,-0.6881769,-0.4364614,0.08952905,0.04380064,0.9436671,-2.024825,-23.39542,-43.09235,0.01539062
9.548990029,-0.956527,1.870102,1.332812,0.05108079,0.0443098,0.9811338,-2.024825,-23.39542,-43.09235,0.01539062
9.569001368,-1.502282,2.783772,0.05161398,0.05104991,0.05998854,0.9506198,-2.024825,-23.39542,-43.09235,0.01539062
9.589012822,-2.108677,4.306557,0.6617082,0.04339903,0.03666246,0.9962267,-2.024825,-23.39542,-43.09235,0.01539062
9.609024422,-2.957629,5.281139,1.271803,0.02033655,0.05985466,1.026538,-2.386012,-23.83124,-42.6656,0.01539062
9.629035688,-2.654432,4.306557,0.2956517,-0.00276012,0.006908205,1.017982,-2.386012,-23.83124,-42.6656,0.01539062
9.649047080,-2.169316,3.880178,0.1736328,0.0126655,-0.01681356,1.048766,-2.386012,-23.83124,-42.6656,0.01539062
9.669058565,-1.562922,2.722861,1.332812,0.02029989,0.03732876,0.9880766,-2.022053,-23.82321,-43.09808,0.01539062
9.689070019,-1.441643,2.174659,-0.2534332,0.02030814,0.02192064,0.9956181,-2.022053,-23.82321,-43.09808,0.01539062
9.709081462,-0.7139691,1.200076,-0.009395452,0.004906905,0.007076978,0.9875161,-2.388784,-23.40345,-42.65987,0.01539062
9.729092739,-0.3501323,0.4691395,-0.07040489,0.02031638,0.006512509,1.00316,-2.388784,-23.40345,-42.65987,0.01539062
9.749104068,1.832889,-2.637341,0.5396894,0.004923398,-0.02373928,1.002599,-2.388784,-23.40345,-42.65987,0.01539062
9.769115595,1.71161,-2.271873,-0.3144426,0.02800604,0.006410677,0.9956663,-0.5720086,-23.02023,-43.08104,0.01539062
9.789126934,1.832889,-2.393696,-1.961697,0.05108798,0.05187856,0.9888494,-0.5720086,-23.02023,-43.08104,0.01539062
9.809138294,-0.2288534,1.321899,0.905746,0.02029129,0.06039587,0.9805931,-1.29739,-23.39706,-42.65507,0.01539062
9.829149654,-0.3501323,1.931013,0.9667554,0.02033358,-0.03962168,1.018126,-1.29739,-23.39706,-42.65507,0.01539062
9.849160983,0.8020176,-1.662759,-1.412612,0.004906202,0.0223949,0.9876322,-2.024986,-23.40133,-42.65827,0.01539062
9.869172208,0.6807387,-0.3227086,1.454831,0.02800358,0.06002343,0.9960725,-2.024986,-23.40133,-42.65827,0.01539062
9.889183922,-0.2288534,0.5909624,-1.534631,0.02031603,0.01417147,1.003218,-2.024986,-23.40133,-42.65827,0.01539062
9.909195189,-0.1075744,0.9564307,1.210793,0.02031638,0.006512509,1.00316,-2.024825,-23.39542,-43.09235,0.01539062
9.929206528,0.2562624,-0.2617972,-0.8025181,0.02033042,0.02930899,1.018649,-2.024825,-23.39542,-43.09235,0.01539062
9.949217732,0.4381808,0.04275978,0.1126234,0.03571797,0.01369721,1.011203,-2.39116,-23.03678,-42.65497,0.01539062
9.969229342,0.3169019,-0.01815162,0.1126234,0.02031463,0.04480733,1.00345,-2.39116,-23.03678,-42.65497,0.01539062
9.989240828,-0.3501323,1.139165,-0.4364614,0.02032322,0.02174024,1.010933,-2.39116,-23.03678,-42.65497,0.01539062
10.009252334,-0.1682139,0.4082282,0.5396894,0.02030919,-0.001056255,0.995444,-2.024825,-23.39542,-43.09235,0.01539062
10.029263485,0.6200992,-1.053645,-0.7415086,0.02030673,0.0525565,0.9958503,-2.024825,-23.39542,-43.09235,0.01539062
10.049274887,0.1349835,0.5909624,0.7227177,0.03570972,0.02910533,1.003662,-1.663564,-23.03252,-42.65176,0.01539062
10.069286299,-0.2894928,0.5300509,-0.4364614,0.02030849,0.01426167,0.9955601,-1.663564,-23.03252,-42.65176,0.01539062
10.089297774,0.01370452,0.225494,0.5396894,0.01262603,0.02193227,1.010769,-1.663564,-23.03252,-42.65176,0.01539062
10.109309312,0.3169019,-0.2617972,-0.009395452,0.02799815,0.01415984,0.9880667,-1.299766,-23.03039,-42.65016,0.01539062
10.129320578,0.3169019,-0.2617972,-0.07040489,0.02801218,0.03695633,1.003556,-1.299766,-23.03039,-42.65016,0.01539062
10.149331917,-0.04693495,0.5909624,0.3566611,0.02030814,0.02192064,0.9956181,-1.658255,-23.82108,-43.09647,0.01539062
10.169343350,0.07434399,0.4691395,-0.375452,0.02032393,0.006422308,1.010817,-1.658255,-23.82108,-43.09647,0.01539062
10.189354679,0.6807387,-0.2008858,0.2956517,0.02031568,0.02183044,1.003276,-1.658255,-23.82108,-43.09647,0.01539062
10.209365977,0.3169019,-0.2008858,-0.3144426,0.02028481,0.03750917,0.9727616,-2.022214,-23.82911,-42.664,0.01539062
10.229377577,-0.2288534,0.7736965,0.3566611,0.02031568,0.02183044,1.003276,-2.022214,-23.82911,-42.664,0.01539062
10.249388979,0.1349835,-0.07906301,-0.1314143,0.02033112,0.01399107,1.018533,-1.299927,-23.03629,-42.21608,0.01539062
10.269400245,0.1956229,0.04275978,-0.07040489,0.02031568,0.02183044,1.003276,-1.299927,-23.03629,-42.21608,0.01539062
10.289411657,0.3169019,-0.1399744,0.1736328,0.02800499,0.02938757,0.9958404,-1.299927,-23.03629,-42.21608,0.01539062
10.309422976,0.1349835,-0.07906301,-0.009395452,0.0203006,0.02201084,0.9879605,-1.663403,-23.02662,-43.08584,0.01539062
10.329434451,-0.04693495,0.5300509,0.2346423,0.02031603,0.01417147,1.003218,-1.663403,-23.02662,-43.08584,0.01539062
10.349445988,0.2562624,-0.2617972,-0.2534332,0.02030095,0.01435188,0.9879025,-2.029738,-22.66798,-42.64846,0.01539062
10.369457234,0.1349835,-0.01815162,0.05161398,0.02030814,0.02192064,0.9956181,-2.029738,-22.66798,-42.64846,0.01539062
10.389468708,0.07434399,0.2864054,-0.2534332,0.02801323,0.01397944,1.003382,-2.029738,-22.66798,-42.64846,0.01539062
10.409480152,-0.1075744,1.139165,-0.07040489,0.02030849,0.01426167,0.9955601,-1.663564,-23.03252,-42.65176,0.01539062
10.429491273,0.3169019,-0.07906301,-0.07040489,0.02032322,0.02174024,1.010933,-1.663564,-23.03252,-42.65176,0.01539062
10.449503060,0.07434399,-0.01815162,-0.009395452,0.02030814,0.02192064,0.9956181,-1.661027,-23.39329,-43.09075,0.01539062
10.469514399,0.1956229,0.3473167,0.1736328,0.02030884,0.00660271,0.9955021,-1.661027,-23.39329,-43.09075,0.01539062
10.489525520,-0.04693495,0.3473167,-0.009395452,0.02031603,0.01417147,1.003218,-1.661027,-23.39329,-43.09075,0.01539062
10.509536953,0.1956229,0.2864054,0.1126234,0.02031603,0.01417147,1.003218,-2.024986,-23.40133,-42.65827,0.01539062
10.529548490,0.4381808,0.04275978,-0.009395452,0.02800499,0.02938757,0.9958404,-2.024986,-23.40133,-42.65827,0.01539062
10.549559861,0.07434399,0.3473167,0.1736328,0.02030024,0.0296698,0.9880186,-2.388784,-23.40345,-42.65987,0.01539062
10.569571065,-0.1075744,0.225494,-0.009395452,0.02031603,0.01417147,1.003218,-2.388784,-23.40345,-42.65987,0.01539062
10.589582696,0.2562624,0.225494,0.1126234,0.02032322,0.02174024,1.010933,-1.299766,-23.03039,-42.65016,0.01539062
10.609593983,0.1956229,0.1036712,0.05161398,0.02030814,0.02192064,0.9956181,-1.299766,-23.03039,-42.65016,0.01539062
10.629605385,0.01370452,-0.01815162,-0.009395452,0.02032358,0.01408127,1.010875,-1.299766,-23.03039,-42.65016,0.01539062
