Time (s),Gyroscope X (deg/s),Gyroscope Y (deg/s),Gyroscope Z (deg/s),Accelerometer X (g),Accelerometer Y (g),Accelerometer Z (g),Magnetometer X (uT),Magnetometer Y (uT),Magnetometer Z (uT),Barometer (hPa)
0.011611143,0.1132122,-0.3092916,0.08273234,0.02100388,-0.01551031,0.9802497,-0.3293939,-19.86441,-42.06581,1027.195
0.034081048,0.05239271,0.1185618,0.08273234,0.01372239,0.01539126,1.003106,-0.3293939,-19.86441,-42.06581,1027.195
0.054054263,-0.06924627,0.2408056,-0.03894361,0.01363726,0.007683371,1.003103,0.7237587,-19.49664,-41.98954,1027.195
0.074027228,-0.1908853,0.3630495,0.08273234,0.0135332,2.175616E-05,0.995442,0.7237587,-19.49664,-41.98954,1027.195
0.094000349,-0.1300658,0.05743987,0.02189437,0.02133499,0.007428261,1.010893,-0.6804061,-19.86925,-42.06937,1027.195
0.113973502,-0.3125242,0.1185618,-0.03894361,0.02117414,-9.453902E-05,0.9802546,-0.6804061,-19.86925,-42.06937,1027.195
0.133946759,0.2956707,0.1185618,0.08273234,0.01361833,0.007729643,0.9954444,-0.6804061,-19.86925,-42.06937,1027.195
0.153920036,0.2348512,-0.003682045,-0.09978159,0.0135332,2.175616E-05,0.995442,0.01986551,-19.50584,-41.56712,1027.193
0.173893262,0.05239271,-0.003682045,-0.09978159,0.01361833,0.007729643,0.9954444,0.01986551,-19.50584,-41.56712,1027.193
0.193866144,-0.06924627,0.3019276,0.08273234,0.005977388,0.007845938,1.010632,0.02096701,-20.21268,-42.00512,1027.195
0.213839255,0.05239271,0.4852933,-0.09978159,0.02123092,-0.0002333545,1.003232,0.02096701,-20.21268,-42.00512,1027.195
0.233812553,-0.008426782,0.3019276,0.02189437,0.01348592,-0.007778674,1.010758,0.02096701,-20.21268,-42.00512,1027.195
0.253785789,-0.008426782,0.05743987,-0.1606196,0.01344807,-0.007686131,0.9954395,0.3723631,-19.85465,-41.99733,1027.195
0.273758764,-0.06924627,0.3630495,0.02189437,0.02133499,0.007428261,1.010893,0.3723631,-19.85465,-41.99733,1027.195
0.293732125,-0.1300658,0.05743987,-0.09978159,0.02907999,0.01497358,1.003367,-0.3271413,-19.51171,-42.49112,1027.195
0.313705288,-0.1300658,0.3019276,-0.03894361,0.01361833,0.007729643,0.9954444,-0.3271413,-19.51171,-42.49112,1027.197
0.333678358,0.1740317,0.3019276,0.02189437,0.005958459,0.00789221,1.002973,-0.3271413,-19.51171,-42.49112,1027.197
0.353651510,0.1740317,0.1796837,-0.1606196,0.01349534,0.0001142998,0.9801238,0.02387047,-19.50686,-42.48756,1027.197
0.373624736,-0.1300658,0.1185618,-0.03894361,0.01355213,-2.451567E-05,1.003101,0.02387047,-19.50686,-42.48756,1027.197
0.393597805,0.05239271,0.3630495,-0.09978159,0.02131606,0.007474532,1.003234,0.02161789,-19.85957,-42.06225,1027.197
0.413571072,-0.06924627,-0.003682045,-0.03894361,0.005873327,0.0001843232,1.00297,0.02161789,-19.85957,-42.06225,1027.195
0.433544173,-0.1908853,0.05743987,0.02189437,0.01355213,-2.451567E-05,1.003101,0.02161789,-19.85957,-42.06225,1027.195
0.453517492,0.1132122,-0.4315355,-0.03894361,0.02110794,-0.007848698,0.9879112,-0.3275251,-19.86488,-42.49535,1027.199
0.473490541,-0.008426782,-0.1259259,0.08273234,0.02148633,0.02289031,1.003239,-0.3275251,-19.86488,-42.49535,1027.199
0.493463683,0.3564901,-0.003682045,0.02189437,0.01365619,0.007637099,1.010762,-0.3293939,-19.86441,-42.06581,1027.199
0.513436992,-0.4341632,0.3019276,0.02189437,0.02887187,-0.0003496497,0.9880444,-0.3293939,-19.86441,-42.06581,1027.199
0.535906803,-0.06924627,0.1796837,0.02189437,0.01363726,0.007683371,1.003103,-0.3293939,-19.86441,-42.06581,1027.199
0.555879893,-0.008426782,0.3630495,0.02189437,0.01342914,-0.007639859,0.9877805,0.02348661,-19.86004,-42.49179,1027.199
0.575853254,0.1740317,0.1796837,0.08273234,0.01338186,-0.01544029,1.003096,0.02348661,-19.86004,-42.49179,1027.195
0.595826219,-0.06924627,-0.06480397,-0.09978159,0.005892254,0.0001380518,1.010629,-0.9725323,-19.52011,-42.0681,1027.195
0.615799403,0.3564901,-0.003682045,-0.09978159,0.0135332,2.175616E-05,0.995442,-0.9725323,-19.52011,-42.0681,1027.195
0.635772472,0.05239271,0.1185618,0.08273234,0.02142012,0.01513615,1.010896,-0.9725323,-19.52011,-42.0681,1027.195
0.655745583,0.1132122,0.6075372,0.2044083,0.01358048,0.007822186,0.9801263,-0.32901,-19.51123,-42.06158,1027.199
0.675718913,0.1132122,0.1796837,-0.03894361,0.01363726,0.007683371,1.003103,-0.32901,-19.51123,-42.06158,1027.199
0.695692284,-0.06924627,-0.06480397,-0.03894361,0.02894758,-0.0005347366,1.018681,-0.326757,-19.15853,-42.48689,1027.195
0.715665312,-0.1300658,0.3019276,-0.09978159,0.0288908,-0.0003959215,0.9957035,-0.326757,-19.15853,-42.48689,1027.195
0.735638600,0.3564901,0.1185618,-0.2214575,0.021212,-0.0001870827,0.9955727,-0.326757,-19.15853,-42.48689,1027.195
0.755611565,0.05239271,-0.1870478,-0.2214575,0.005835471,0.0002768668,0.9876521,-0.3271413,-19.51171,-42.49112,1027.195
0.775584717,0.1132122,-0.2481697,-0.09978159,0.0288908,-0.0003959215,0.9957035,-0.3271413,-19.51171,-42.49112,1027.195
0.795557880,-0.008426782,0.05743987,0.08273234,0.006043592,0.0156001,1.002975,0.3748827,-19.50202,-42.48401,1027.195
0.815531012,-0.008426782,0.05743987,0.02189437,0.01351427,6.802799E-05,0.9877829,0.3748827,-19.50202,-42.48401,1027.198
0.835504384,0.2956707,0.3630495,0.02189437,0.01380753,0.02309914,1.003108,0.3748827,-19.50202,-42.48401,1027.198
0.855477349,0.2348512,-0.1870478,0.2044083,0.02129713,0.007520804,0.9955752,-0.6800222,-19.51607,-42.06514,1027.198
0.875450522,0.05239271,-0.3092916,0.2044083,0.01351427,6.802799E-05,0.9877829,-0.6800222,-19.51607,-42.06514,1027.198
0.895423716,0.05239271,0.3019276,0.02189437,0.02145798,0.01504361,1.026214,-0.3271413,-19.51171,-42.49112,1027.198
0.915396775,0.05239271,0.05743987,0.08273234,0.01344807,-0.007686131,0.9954395,-0.3271413,-19.51171,-42.49112,1027.198
0.935370115,-0.06924627,-0.003682045,0.08273234,0.005958459,0.00789221,1.002973,-0.3271413,-19.51171,-42.49112,1027.198
0.955343174,0.05239271,-0.1870478,0.08273234,0.0212782,0.007567076,0.9879161,0.373014,-19.50154,-42.05447,1027.198
0.975316441,0.05239271,0.2408056,-0.03894361,0.01363726,0.007683371,1.003103,0.373014,-19.50154,-42.05447,1027.198
0.995289500,0.1132122,0.05743987,0.1435703,0.01365619,0.007637099,1.010762,-0.3288927,-19.15798,-41.99599,1027.198
1.015262684,0.1132122,-0.2481697,0.08273234,0.0288908,-0.0003959215,0.9957035,-0.3288927,-19.15798,-41.99599,1027.198
1.037732683,-0.06924627,0.1185618,-0.09978159,0.01363726,0.007683371,1.003103,-0.3288927,-19.15798,-41.99599,1027.198
1.057705898,0.3564901,0.6075372,0.2044083,0.02136333,0.01527496,0.9879186,0.01948166,-19.85902,-41.57135,1027.198
1.077679071,0.05239271,0.1185618,0.02189437,0.021212,-0.0001870827,0.9955727,0.01948166,-19.85902,-41.57135,1027.198
1.097652203,0.1132122,0.05743987,0.08273234,0.006043592,0.0156001,1.002975,-0.326757,-19.15853,-42.48689,1027.198
1.117625158,0.05239271,-0.003682045,0.02189437,0.02107959,-0.0156954,1.010886,-0.326757,-19.15853,-42.48689,1027.198
1.137598321,0.1132122,0.1185618,0.08273234,0.01361833,0.007729643,0.9954444,-0.326757,-19.15853,-42.48689,1027.196
1.157571713,0.1740317,-0.2481697,0.08273234,0.0135994,0.007775914,0.9877853,-0.3283057,-18.86374,-42.05383,1027.196
1.177544584,0.05239271,0.05743987,0.6302742,0.09095498,0.05179603,1.012085,-0.3283057,-18.86374,-42.05383,1027.196
1.197517925,0.4781291,-0.1870478,8.478373,-0.01016534,-0.0610611,1.002689,-0.3296609,-19.86434,-42.00445,1027.196
1.217491192,-0.1908853,0.05743987,-5.27101,0.1195986,-0.1418753,1.035524,-0.3296609,-19.86434,-42.00445,1027.194
1.237464178,-0.1300658,1.524366,-0.7081613,-0.09282541,0.1030555,1.008961,-0.3296609,-19.86434,-42.00445,1027.194
1.257437455,-0.008426782,-0.7371451,-1.194865,-0.001985246,-0.007083366,0.9645417,-0.329277,-19.51116,-42.00022,1027.194
1.277410650,-0.1908853,-0.4926574,-0.9515132,0.1128089,-0.04884793,0.9818093,-0.329277,-19.51116,-42.00022,1027.194
1.297383927,0.3564901,0.6686591,-0.2822955,-0.04697016,0.07858624,1.025056,-0.32901,-19.51123,-42.06158,1027.194
1.317357132,0.2348512,-0.6149012,-0.5864854,-0.002401404,-0.05356205,1.002822,-0.32901,-19.51123,-42.06158,1027.194
1.337330201,-0.06924627,-0.003682045,0.4477602,0.09047253,0.01339542,0.9890956,-0.32901,-19.51123,-42.06158,1027.194
1.357303229,0.4781291,0.3019276,-0.4039715,-0.01682254,0.03164238,1.002588,-0.6777692,-19.16337,-42.49045,1027.194
1.377276579,0.05239271,-0.2481697,0.8736261,-0.009824805,-0.03022955,1.002699,-0.6777692,-19.16337,-42.49045,1027.194
1.397249815,-0.06924627,0.05743987,-0.6473234,0.06755912,0.02163727,1.004024,-0.6785374,-19.86972,-42.49891,1027.194
1.417222707,0.1132122,0.1185618,1.603682,-0.06347234,-0.02110606,1.009445,-0.6785374,-19.86972,-42.49891,1027.194
1.437195808,-0.3125242,-0.2481697,0.5085982,0.03672094,0.01485729,0.9881801,-0.6785374,-19.86972,-42.49891,1027.194
1.457169127,0.3564901,-0.4315355,0.6911122,0.05193662,0.006870537,0.965462,-0.6806731,-19.86918,-42.00801,1027.194
1.477142405,0.1132122,-0.003682045,0.2044083,0.07592841,0.0909845,0.9735404,-0.6806731,-19.86918,-42.00801,1027.194
1.497115506,0.7214071,-0.9816328,3.793849,-0.03335308,-0.07589663,1.009951,0.02535582,-19.86052,-42.92134,1027.194
1.517088918,0.05239271,-0.3704135,-1.499055,0.06765367,0.03723814,0.9733924,0.02535582,-19.86052,-42.92134,1027.192
1.539558532,0.2956707,-0.06480397,0.934464,0.01382645,0.02305287,1.010767,0.02535582,-19.86052,-42.92134,1027.192
1.559531517,0.5997681,-0.1259259,0.1435703,-0.002486537,-0.06126994,1.00282,-0.6821585,-19.51553,-41.57424,1027.194
1.579504889,-0.06924627,0.1185618,0.5694362,-0.001143337,0.06210253,0.9952,-0.6821585,-19.51553,-41.57424,1027.194
1.599478177,0.2348512,0.1185618,-1.134027,0.04395515,-0.02384472,0.9806396,-0.6804061,-19.86925,-42.06937,1027.194
1.619451048,0.2348512,0.4241714,1.177816,-0.01699281,0.01622662,1.002583,-0.6804061,-19.86925,-42.06937,1027.194
1.639424232,-0.06924627,-0.1870478,-0.4039715,0.04452273,0.02226379,1.003631,-0.6804061,-19.86925,-42.06937,1027.192
1.659397510,0.05239271,0.1796837,-0.5256474,0.02868268,-0.01571915,0.9803805,-0.32901,-19.51123,-42.06158,1027.192
1.679370798,-0.1908853,0.5464152,0.7519501,-0.04774586,0.01715451,0.9867415,-0.32901,-19.51123,-42.06158,1027.192
1.699344044,0.5389487,-1.348364,-1.499055,0.02105124,-0.0235421,1.033861,0.02200174,-19.50639,-42.05802,1027.192
1.719316978,1.086324,-2.142949,0.1435703,-0.002060872,-0.0227305,1.002832,0.02200174,-19.50639,-42.05802,1027.192
1.739290204,0.1132122,-1.898462,-1.012351,-0.02516348,-0.02985814,1.010096,0.02200174,-19.50639,-42.05802,1027.192
1.759263408,1.268782,-5.199045,-1.803245,-0.05607729,-0.05228527,1.032543,0.02200174,-19.50639,-42.05802,1027.192
1.779236561,4.492215,-10.39441,-5.210172,-0.002836491,-0.09999446,1.033444,0.02200174,-19.50639,-42.05802,1027.192
1.799209922,9.722692,-15.1008,-6.061903,0.0285125,-0.04696715,1.049302,-0.3271413,-19.51171,-42.49112,1027.188
1.819194407,10.51334,-16.20099,-4.35844,0.07494476,-0.0174349,1.057756,-0.3271413,-19.51171,-42.49112,1027.188
1.839167602,12.52039,-17.30119,-1.438217,0.06754028,0.005851325,1.065292,-0.3271413,-19.51171,-42.49112,1027.188
1.859140692,15.86546,-16.44548,0.4477602,0.07535149,0.0211508,1.050109,-0.3308792,-19.51075,-41.63204,1027.188
1.879113886,20.6702,-13.63387,1.66452,0.08293565,0.02117332,1.011944,-0.3308792,-19.51075,-41.63204,1027.192
1.899087060,25.47494,-9.294213,2.272899,0.05254206,0.05288649,1.003772,-0.9776888,-20.57862,-41.16035,1027.192
1.919060087,29.79312,-5.137923,2.090385,0.06024921,0.06052436,0.9809281,-0.9776888,-20.57862,-41.16035,1027.194
1.939033479,35.44933,-1.83734,2.151223,0.05246635,0.05307158,0.9731358,-0.9776888,-20.57862,-41.16035,1027.194
1.959006496,40.37571,0.729781,3.428821,0.08292615,0.02911257,0.9736515,-2.030725,-20.59315,-41.17102,1027.192
1.978979670,44.93718,4.947193,4.828094,0.07542703,0.05263015,0.9428918,-2.030725,-20.59315,-41.17102,1027.192
1.998952854,49.31618,7.453192,5.375636,0.06807934,0.07577757,0.9734046,-1.683118,-22.00054,-40.75485,1027.192
2.018926048,51.99224,8.125533,5.375636,0.04509964,0.09209749,0.9270628,-1.683118,-22.00054,-40.75485,1027.192
2.041395734,55.45895,8.431143,3.550497,0.02249841,0.1233242,0.9649756,-2.043345,-23.35726,-38.99509,1027.192
2.061368929,56.8578,7.69768,1.177816,-0.000197452,0.1547823,0.9645931,-2.043345,-23.35726,-38.99509,1027.192
2.081342289,58.7432,6.903095,-1.681569,0.01524528,0.1620725,0.964857,-2.043345,-23.35726,-38.99509,1027.194
2.101315463,61.05434,5.925144,-4.175926,0.007869156,0.1932054,0.9494179,-1.34763,-25.46562,-38.09291,1027.194
2.121288584,64.15614,5.191681,-6.061903,0.0308015,0.1849173,0.9421487,-1.34763,-25.46562,-38.09291,1027.194
2.141261872,68.29185,4.886071,-6.974473,0.04643342,0.207577,0.9500767,-1.356962,-27.17075,-36.39519,1027.194
2.161234921,72.12349,5.436169,-6.913635,0.02361456,0.2314197,0.9343736,-1.356962,-27.17075,-36.39519,1027.194
2.181208032,76.56331,5.741778,-6.852797,0.03908565,0.2465566,0.9116628,-1.356962,-27.17075,-36.39519,1027.194
2.201181403,80.33411,5.619534,-6.426931,0.02422934,0.3011608,0.873123,-1.017749,-28.92928,-34.14235,1027.194
2.221154545,83.37509,5.436169,-6.366093,0.01689107,0.3322012,0.8730021,-1.017749,-28.92928,-34.14235,1027.196
2.241127667,86.65935,3.663633,-5.331848,0.0558243,0.3694189,0.9196226,-1.017749,-28.92928,-34.14235,1027.196
2.261100861,89.27458,2.807926,-2.837491,0.07883227,0.3767779,0.874063,-0.7333531,-30.98395,-32.81408,1027.196
2.281074034,93.04539,3.724755,-1.924921,0.06422193,0.4466128,0.8661644,-0.7333531,-30.98395,-32.81408,1027.196
2.301047291,94.26178,2.991292,-2.168273,0.003113144,0.4791613,0.8574689,-0.747725,-33.39434,-30.14301,1027.196
2.321020225,92.19392,0.4852933,-2.715815,0.003226626,0.4947159,0.8344966,-0.747725,-33.39434,-30.14301,1027.196
2.340993534,91.09917,-2.81529,-2.776653,0.0269631,0.539874,0.9114943,-0.747725,-33.39434,-30.14301,1027.198
2.360966645,88.36229,-3.365388,-2.898329,-0.0495128,0.5807795,0.8642442,-0.410882,-35.85883,-27.53045,1027.198
2.380939954,84.6523,-0.2481697,-4.540954,-0.01891116,0.5802218,0.818813,-0.410882,-35.85883,-27.53045,1027.198
2.400913221,83.13181,-0.4315355,-8.373747,-0.0337202,0.6426264,0.7649575,-0.4267392,-37.91556,-24.42561,1027.198
2.420886353,82.7669,-4.526704,-12.38905,-0.01054196,0.6654012,0.7194028,-0.4267392,-37.91556,-24.42561,1027.199
2.440859360,83.19263,-6.238118,-15.73514,-0.01820184,0.6655638,0.7269312,-0.4267392,-37.91556,-24.42561,1027.199
2.460832491,82.1587,-7.399434,-15.79598,0.06589599,0.6404205,0.6824079,-0.4422755,-39.67798,-21.31725,1027.199
2.480805779,80.03002,-6.543727,-14.09252,0.05086951,0.6637768,0.71279,-0.4422755,-39.67798,-21.31725,1027.199
2.500779015,78.57035,-8.805239,-12.44989,0.02868443,0.7414821,0.7124221,0.5964389,-40.30748,-18.18482,1027.201
2.520752053,78.93527,-10.33329,-13.05827,0.02103398,0.7495377,0.6893166,0.5964389,-40.30748,-18.18482,1027.201
2.543221916,78.26626,-8.866361,-13.48414,0.005354695,0.7349098,0.6277776,0.9336662,-42.41879,-15.56803,1027.201
2.563195048,78.93527,-8.194019,-11.96319,0.03598476,0.7263666,0.6282983,0.9336662,-42.41879,-15.56803,1027.201
2.583168305,83.49673,-6.176996,-9.955534,0.05132343,0.7259951,0.6209008,0.9336662,-42.41879,-15.56803,1027.201
2.603141520,88.84885,-3.915485,-8.677937,0.04388102,0.7652061,0.5441915,1.61982,-42.75834,-12.00609,1027.201
2.623114610,93.47113,1.463244,-8.677937,-0.02510528,0.7905332,0.4894084,1.61982,-42.75834,-12.00609,1027.201
2.643087763,95.78226,3.419145,-9.347154,0.02521257,0.4887414,0.4442741,2.306755,-44.09903,-8.885678,1027.201
2.663060957,97.91095,2.318951,-8.312908,-0.03998985,0.8214586,0.5427701,2.306755,-44.09903,-8.885678,1027.201
2.683034131,103.0198,1.279878,-7.096149,-0.0247364,0.8292115,0.4664434,2.306755,-44.09903,-8.885678,1027.201
2.703007335,107.3988,2.380073,-5.818552,-0.009814052,0.8140258,0.3594732,1.936636,-43.74574,-4.405507,1027.203
2.722980405,111.5953,4.947193,-3.080842,-0.009634279,0.8215024,0.397771,1.936636,-43.74574,-4.405507,1027.203
2.742953432,114.6971,7.086461,-0.4648094,0.02939342,0.8901531,0.3448334,1.567501,-44.45251,-0.4289293,1027.203
2.762926616,117.9206,6.903095,1.66452,-0.03082619,0.999688,0.3514805,1.567501,-44.45251,-0.4289293,1027.203
2.782899810,118.2855,8.186655,5.010608,0.02193208,0.9294103,0.2604651,1.567501,-44.45251,-0.4289293,1027.201
2.802873015,118.3463,8.98124,7.930831,-0.008697988,0.9379536,0.2599444,1.897153,-44.44223,4.483668,1027.201
2.822846095,115.7919,8.553387,10.48603,-0.008310263,0.9924178,0.1757119,1.897153,-44.44223,4.483668,1027.199
2.842819299,111.5953,8.308899,12.55452,0.02266033,1.014706,0.1762423,1.531423,-43.73677,8.047625,1027.199
2.862792514,103.2022,7.208704,15.83977,0.03817869,1.037643,0.1382159,1.531423,-43.73677,8.047625,1027.199
2.882765584,94.93079,8.125533,18.94251,0.06876131,1.052964,0.01619882,1.531423,-43.73677,8.047625,1027.199
2.902738892,86.29443,9.531337,20.95016,0.01568135,1.108196,0.04593674,1.164528,-42.38334,12.04888,1027.199
2.922712014,74.61709,9.775825,21.011,0.008210677,1.123728,0.06112899,1.164528,-42.38334,12.04888,1027.199
2.942685083,61.78417,6.597485,20.70681,0.008201255,1.115835,0.09176281,0.7969289,-41.67741,16.04237,1027.199
2.962658330,48.28225,0.7909029,20.52429,0.02333172,1.115973,0.0001155689,0.7969289,-41.67741,16.04237,1027.199
2.985128141,33.1382,-6.543727,18.75999,-0.007099731,1.147779,-0.02337497,0.7969289,-41.67741,16.04237,1027.199
3.005101314,19.39299,-11.00563,14.98804,0.008068588,1.147824,-0.09970407,-0.6114569,-40.28257,17.39505,1027.199
3.025074560,5.951883,-13.14489,9.816809,0.02334105,1.139698,-0.09944496,-0.6114569,-40.28257,17.39505,1027.199
3.045047577,-8.097419,-13.57275,5.923178,0.04651937,1.146641,-0.07607297,-1.260149,-39.64246,18.74627,1027.198
3.065020834,-19.77476,-13.14489,1.907872,0.06954635,1.138121,-0.04504681,-1.260149,-39.64246,18.74627,1027.198
3.084994050,-29.20178,-10.88338,-1.134027,0.05392385,1.123354,-0.0836086,-1.260149,-39.64246,18.74627,1027.198
3.104967431,-35.64865,-6.788215,-5.088496,0.03848111,1.116064,-0.08387261,-0.963954,-39.93376,17.82526,1027.198
3.124940428,-42.82535,-3.487631,-8.55626,0.01557721,1.116367,-0.03065148,-0.963954,-39.93376,17.82526,1027.199
3.144913684,-49.08975,-2.081827,-12.38905,0.03850963,1.092246,0.03100606,-0.9584641,-40.28843,16.47104,1027.199
3.164886754,-55.7799,-0.6149012,-14.21419,0.04598031,1.076714,0.01581381,-0.9584641,-40.28843,16.47104,1027.198
3.184859896,-61.80103,0.8520249,-15.12676,0.05358348,1.060858,0.05423504,-0.9584641,-40.28843,16.47104,1027.198
3.204833184,-69.46428,2.685682,-13.78833,0.04574393,1.037712,0.09239225,0.1015472,-40.98223,14.69373,1027.199
3.224806274,-73.96493,5.558413,-11.71984,0.07654426,1.044585,0.09291782,0.1015472,-40.98223,14.69373,1027.199
3.244779427,-77.91819,9.714703,-7.339501,0.1152883,1.066433,0.1318744,0.4632716,-41.68667,12.05022,1027.199
3.264752486,-82.78375,16.07138,-1.438217,0.03751656,0.975934,0.1458554,0.4632716,-41.68667,12.05022,1027.199
3.284725659,-85.76391,19.06636,3.489659,-0.02353537,0.9925116,0.2290637,0.4632716,-41.68667,12.05022,1027.198
3.304698895,-87.16275,18.21065,6.227368,-0.0003097749,1.007255,0.2371201,0.4773388,-42.75008,8.53984,1027.198
3.324672037,-87.95341,17.66055,10.18184,0.053177,0.974776,0.268662,0.4773388,-42.75008,8.53984,1027.196
3.344645065,-89.96045,18.69963,15.83977,0.05328107,0.9824376,0.2763235,0.1384721,-44.11224,5.390554,1027.196
3.364618311,-93.12306,19.06636,20.70681,0.02997984,0.9520475,0.3065577,0.1384721,-44.11224,5.390554,1027.196
3.384591464,-93.42716,19.00523,22.95781,0.02997993,0.9362153,0.3754844,0.1384721,-44.11224,5.390554,1027.196
3.404564783,-92.87978,15.52129,24.47876,0.007019242,0.9366568,0.4057283,0.153574,-44.46936,1.827271,1027.194
3.424537852,-93.06224,13.44314,24.90463,0.05318668,0.9351723,0.4448083,0.153574,-44.46936,1.827271,1027.194
3.444511026,-93.91372,12.52631,24.5396,0.0528178,0.896494,0.4677733,-0.883709,-44.4879,-1.803822,1027.194
3.466980889,-95.67748,15.21568,24.96547,0.05990067,0.84233,0.467887,-0.883709,-44.4879,-1.803822,1027.194
3.486954073,-98.71845,16.80485,25.20882,0.005780189,0.8051137,0.4899364,-0.883709,-44.4879,-1.803822,1027.198
3.506927132,-96.71141,11.18163,21.4977,0.006328929,0.8354363,0.5741959,-2.562528,-44.16255,-5.805383,1027.198
3.526900378,-94.40027,6.658607,16.38731,0.07547598,0.8334641,0.5906911,-2.562528,-44.16255,-5.805383,1027.198
3.546873489,-97.6237,5.986266,15.4139,0.05934268,0.7724501,0.5521147,-2.895802,-43.81863,-9.793307,1027.198
3.566846600,-103.8273,7.819923,13.6496,0.004427567,0.6738483,0.5281901,-2.895802,-43.81863,-9.793307,1027.198
3.586819846,-104.7396,5.925144,7.930831,0.02823033,0.7109282,0.666458,-2.895802,-43.81863,-9.793307,1027.198
3.606793020,-103.8881,1.279878,1.96871,0.1360836,0.7308968,0.7065915,-3.583824,-43.4786,-12.92571,1027.196
3.626766204,-106.8683,2.563438,0.5694362,0.1280264,0.7003667,0.6911329,-3.583824,-43.4786,-12.92571,1027.196
3.646739513,-112.7069,5.925144,-0.5864854,0.0657635,0.6407444,0.6287945,-4.559648,-42.49614,-16.97376,1027.2
3.666712759,-115.6263,5.619534,-4.845144,-0.02732799,0.5505707,0.657832,-4.559648,-42.49614,-16.97376,1027.2
3.686685807,-112.0987,-4.037729,-9.77302,0.07394393,0.6313933,0.8663539,-4.559648,-42.49614,-16.97376,1027.194
3.706659126,-115.8696,-6.604849,-11.47648,0.09674377,0.623429,0.8054713,-3.896467,-40.37262,-20.93045,1027.194
3.726632238,-119.2146,-4.954557,-12.63241,0.0648934,0.5320474,0.7589643,-3.896467,-40.37262,-20.93045,1027.194
3.746605286,-119.4579,-1.53173,-14.82257,0.001798121,0.3953,0.7042606,-3.524107,-38.66571,-25.38595,1027.194
3.766578584,-109.4227,-6.543727,-17.4386,-0.020907,0.3872007,0.8723653,-3.524107,-38.66571,-25.38595,1027.194
3.786551664,-104.6788,-11.98358,-16.70855,0.08677598,0.3917534,0.912494,-3.524107,-38.66571,-25.38595,1027.198
3.806524942,-99.81321,-11.55573,-14.15335,0.07073722,0.3463402,0.8432862,-3.508187,-36.55011,-28.49008,1027.198
3.826498032,-96.58978,-6.360362,-13.78833,0.06252869,0.300348,0.8354816,-3.508187,-36.55011,-28.49008,1027.198
3.846471299,-92.57568,-2.509681,-13.91,0.08529077,0.2766441,0.8282076,-2.439177,-34.1256,-31.51865,1027.198
3.866444399,-86.91947,-2.81529,-12.75408,0.08531929,0.2528264,0.9430863,-2.439177,-34.1256,-31.51865,1027.198
3.886417635,-82.47965,-4.832314,-8.373747,0.146674,0.2355085,0.9824229,-2.439177,-34.1256,-31.51865,1027.198
3.906390725,-79.4995,-0.1870478,-3.628384,0.1456807,0.1666928,0.8904921,-2.073793,-31.71037,-34.18616,1027.198
3.926363847,-74.69476,5.375047,-0.2214575,0.06079769,0.1383436,0.8584075,-2.073793,-31.71037,-34.18616,1027.198
3.946336864,-67.0315,7.942167,0.7519501,0.03760053,0.1156151,0.8963031,-2.41257,-29.30427,-36.36988,1027.2
3.968806685,-56.63137,5.313925,1.36033,0.07666627,0.1525088,0.9965371,-2.41257,-29.30427,-36.36988,1027.2
3.988779901,-49.02893,5.375047,3.246307,0.1148994,0.1439418,0.9665523,-2.41257,-29.30427,-36.36988,1027.198
4.008753105,-39.60191,8.431143,4.94977,0.09086026,0.06785961,0.9048629,-2.402523,-27.18718,-38.12403,1027.198
4.028726289,-29.38424,11.42612,7.0791,0.06768203,0.04508483,0.9504176,-2.402523,-27.18718,-38.12403,1027.2
4.048699452,-22.0859,12.70968,7.991669,0.04531727,0.09948147,0.9806787,-2.398146,-25.12752,-38.59026,1027.2
4.068672615,-18.43673,11.91509,7.565804,0.04573352,0.130128,1.011325,-2.398146,-25.12752,-38.59026,1027.2
4.088645726,-17.15952,10.38704,6.592396,0.0537245,0.1529039,1.03444,-2.398146,-25.12752,-38.59026,1027.2
4.108619025,-17.82854,9.775825,5.25396,0.06096812,0.1220949,0.9962658,-2.040492,-24.41781,-39.92823,1027.2
4.128592240,-18.68001,9.592459,3.733011,0.04545919,0.1070505,1.003658,-2.040492,-24.41781,-39.92823,1027.2
4.148565351,-18.011,8.553387,1.786196,0.01459265,0.09242385,1.010789,-1.690848,-23.70607,-39.4253,1027.198
4.168538556,-18.011,4.947193,-0.4648094,0.01487648,0.107562,1.056749,-1.690848,-23.70607,-39.4253,1027.198
4.188511750,-19.10575,2.135585,-2.107435,0.006970635,0.09249388,1.033636,-1.690848,-23.70607,-39.4253,1027.2
4.208484840,-18.61919,0.3630495,-3.810898,-0.01636853,0.07802852,0.9796252,-1.686459,-23.35391,-40.34152,1027.2
4.228458076,-18.37591,0.3019276,-6.061903,-0.008841064,0.06235764,0.9874101,-1.686459,-23.35391,-40.34152,1027.2
4.248431364,-16.55133,-0.1259259,-7.522015,-0.001048697,0.06187117,1.033495,-0.337956,-22.33516,-40.74544,1027.2
4.268404506,-14.66592,-2.081827,-7.217825,0.03721289,0.04531866,1.049462,-0.337956,-22.33516,-40.74544,1027.2
4.288377700,-13.75363,-2.142949,-6.305255,0.05210697,0.00645409,1.034394,-0.337956,-22.33516,-40.74544,1027.2
4.308350884,-12.59806,-1.53173,-4.35844,0.03675879,0.01476474,1.003498,-1.33546,-21.64157,-39.88797,1027.2
4.328324068,-10.59102,-0.9816328,-4.175926,0.03717504,0.0454112,1.034144,-1.33546,-21.64157,-39.88797,1027.2
4.348297148,-10.77348,-1.959584,-3.44587,0.03720339,0.0532579,1.01117,-1.680481,-21.29466,-41.17593,1027.2
4.368270290,-10.2261,-2.509681,-3.385032,0.02155253,0.03064446,0.9955825,-1.680481,-21.29466,-41.17593,1027.2
4.388243609,-8.036599,-2.509681,-3.506708,0.03699527,0.03793468,0.9958466,-1.680481,-21.29466,-41.17593,1027.202
4.408216699,-6.637751,-1.470608,-3.14168,0.05205961,0.01448588,0.9807826,-0.9780731,-20.9318,-41.16458,1027.202
4.428189769,-4.691527,-0.9205108,-2.959167,0.06013572,0.04496977,1.0039,-0.9780731,-20.9318,-41.16458,1027.202
4.448162973,-4.509069,-1.103877,-1.499055,0.05971005,0.006430339,1.003888,-1.678228,-20.94196,-41.60124,1027.202
4.468136105,-4.083333,-0.9816328,0.2652463,0.05971005,0.006430339,1.003888,-1.678228,-20.94196,-41.60124,1027.202
4.490606052,-4.509069,-1.653974,1.36033,0.0678051,0.03686796,1.034665,-1.678228,-20.94196,-41.60124,1027.202
4.510578860,-5.847098,0.3630495,0.5694362,0.0603817,0.06020046,1.034542,-0.9758201,-20.5791,-41.58989,1027.2
4.530552326,-7.306766,3.846999,-0.2822955,0.07584345,0.05161217,1.111391,-0.9758201,-20.5791,-41.58989,1027.2
4.550525364,-7.245946,9.653581,-0.1606196,0.09096457,0.02802456,1.119305,-1.326181,-20.23083,-41.65059,1027.2
4.570498537,-7.91496,16.25475,1.482006,0.0985866,0.02795454,1.096458,-1.326181,-20.23083,-41.65059,1027.2
4.590471731,-8.219057,23.58938,2.881279,0.06040071,0.04432196,1.111127,-1.326181,-20.23083,-41.65059,1027.2
4.610444905,-10.34774,31.96308,2.333737,0.03763865,0.06802587,1.118401,-0.9733,-20.22646,-42.07656,1027.2
4.630418162,-14.6051,41.80371,1.36033,0.04502419,0.04478591,1.103207,-0.9733,-20.22646,-42.07656,1027.2
4.650391241,-17.0987,51.15536,0.02189437,-0.03153676,0.06215126,1.124881,-0.3293939,-19.86441,-42.06581,1027.2
4.670364477,-17.0987,57.75653,-1.985759,-0.1011095,0.02558392,1.108374,-0.3293939,-19.86441,-42.06581,1027.2
4.690337703,-21.05197,66.008,-3.202518,-0.01726705,-0.022683,1.063843,-0.3293939,-19.86441,-42.06581,1027.2
4.710310887,-18.80165,72.73141,-1.134027,-0.1018568,-0.02800111,1.047084,1.777446,-19.129,-42.036,1027.2
4.730284091,-16.42969,81.77745,-0.2214575,-0.04881474,-0.08314057,1.002028,1.777446,-19.129,-42.036,1027.2
4.750257129,-14.97002,88.98984,4.158877,-0.1177158,-0.06593778,1.016174,3.827589,-18.45374,-42.43703,1027.2
4.770230167,-10.71266,95.52988,5.740664,-0.1944945,-0.0401242,0.9153055,3.827589,-18.45374,-42.43703,1027.198
4.790203466,-9.982822,98.58598,7.504965,-0.2409078,-0.06970272,0.914511,3.827589,-18.45374,-42.43703,1027.198
4.810176535,-6.881029,101.092,8.721725,-0.2567573,-0.09974641,0.8529671,6.92671,-18.05731,-41.97183,1027.194
4.830149792,-3.110221,104.5148,9.938484,-0.3101779,-0.07534597,0.8826953,6.92671,-18.05731,-41.97183,1027.194
4.850122872,-0.06924627,107.9987,9.938484,-0.3019693,-0.02935376,0.8904998,11.42774,-17.64098,-41.0015,1027.194
4.870096035,1.207963,109.7102,11.03357,-0.2940446,0.001500314,0.852345,11.42774,-17.64098,-41.0015,1027.194
4.890069302,1.876977,111.6661,9.755971,-0.2406148,0.0008250643,0.7230564,11.42774,-17.64098,-41.0015,1027.198
4.910042569,-0.3733437,113.133,8.965076,-0.4175204,-0.03323498,0.7736496,13.8222,-17.96012,-40.12233,1027.198
4.930015565,8.323843,105.8595,8.478373,-0.5406077,-0.1401639,1.162135,13.8222,-17.96012,-40.12233,1027.198
4.949988801,8.567122,107.3264,8.782563,-0.4401688,-0.02564093,0.8958048,17.61709,-17.90569,-38.30426,1027.198
4.969961975,10.39171,108.121,8.478373,-0.5086066,0.06167318,0.7874277,17.61709,-17.90569,-38.30426,1027.194
4.992431744,8.323843,103.6591,5.497312,-0.6095565,-0.05160039,0.8469634,17.61709,-17.90569,-38.30426,1027.194
5.012405011,7.533189,97.36354,2.394575,-0.6093865,0.01131205,0.6401882,20.70782,-17.8604,-36.0024,1027.194
5.032378299,5.951883,86.05598,-2.654977,-0.6173775,-0.01146396,0.6170729,20.70782,-17.8604,-36.0024,1027.194
5.052351598,5.16123,71.44785,-6.791959,-0.6323661,0.01179975,0.662773,24.14906,-18.5167,-33.76681,1027.194
5.072324646,1.816158,59.46795,-10.44224,-0.7550186,-0.001200046,0.813857,24.14906,-18.5167,-33.76681,1027.194
5.092297924,-2.988582,53.96697,-12.69324,-0.7090499,0.005717528,0.7380534,24.14906,-18.5167,-33.76681,1027.198
5.112270972,-6.516112,52.43892,-14.15335,-0.7243034,-0.01786762,0.8833068,26.24855,-19.13364,-32.40323,1027.198
5.132244135,-10.40856,49.50507,-13.72749,-0.7326161,-0.03985701,0.7299874,26.24855,-19.13364,-32.40323,1027.19
5.152217423,-12.65888,46.87683,-14.33587,-0.7020333,-0.05620068,0.7458237,28.29463,-18.75174,-31.9487,1027.19
5.172190555,-15.69985,44.92093,-14.21419,-0.7173436,-0.04798257,0.7302465,28.29463,-18.75174,-31.9487,1027.19
5.192163687,-14.78756,46.75459,-13.84916,-0.7253252,-0.06286561,0.6764973,28.29463,-18.75174,-31.9487,1027.19
5.212136808,-12.96298,48.28263,-10.56391,-0.6569634,-0.1183302,0.6163847,29.69016,-17.72926,-29.71342,1027.19
5.232110169,-9.252989,51.09424,-3.993412,-0.66468,-0.1180288,0.6009358,29.69016,-17.72926,-29.71342,1027.19
5.252083082,-3.17104,54.57819,2.759603,-0.6875557,-0.09404726,0.5622554,31.38722,-16.99943,-29.6264,1027.19
5.272056245,1.998616,58.85672,8.235022,-0.7486832,-0.07728469,0.6148276,31.38722,-16.99943,-29.6264,1027.19
5.292029471,4.492215,64.29658,10.97273,-0.802501,-0.08357698,0.6215687,31.38722,-16.99943,-29.6264,1027.19
5.312002488,7.47237,65.82463,13.28457,-0.794879,-0.08364701,0.5987223,32.78017,-16.62396,-26.96933,1027.19
5.331975682,9.296955,69.3697,15.17055,-0.833065,-0.05144735,0.5444646,32.78017,-16.62396,-26.96933,1027.19
5.351948793,10.87826,72.79253,15.77893,-0.8249606,-0.01311676,0.5446077,33.12305,-16.97032,-25.19047,1027.19
5.371922029,10.14843,74.07609,15.83977,-0.8483659,-0.03533627,0.4982536,33.12305,-16.97032,-25.19047,1027.192
5.391895213,10.51334,73.95384,14.25798,-0.8944766,-0.03399069,0.4821508,33.12305,-16.97032,-25.19047,1027.192
5.411868262,9.722692,73.46487,11.76362,-0.9248323,-0.002370062,0.4892965,34.80671,-18.00346,-22.48599,1027.192
5.431841612,8.019746,79.51594,9.816809,-0.9024392,-0.04892,0.4360608,34.80671,-18.00346,-22.48599,1027.192
5.451814702,7.47237,82.08306,12.12865,-0.9328327,-0.01720683,0.4278883,36.2038,-18.98327,-21.13376,1027.192
5.474284597,9.114496,82.7554,13.46709,-0.902269,-0.017672,0.3671389,36.2038,-18.98327,-21.13376,1027.192
5.494257718,9.418594,79.39369,15.47474,-0.9247851,0.02126259,0.4050542,36.2038,-18.98327,-21.13376,1027.192
5.514230850,9.844331,78.04901,13.77128,-0.9555004,0.03793016,0.3356043,37.88487,-18.95592,-17.55751,1027.192
5.534204034,6.377619,76.39872,11.27692,-0.9787166,0.03108015,0.2969142,37.88487,-18.95592,-17.55751,1027.192
5.554177551,4.553035,70.40877,8.478373,-0.9939039,0.04691361,0.2966575,38.57465,-19.64967,-14.92024,1027.192
5.574150433,2.302714,62.9519,5.436474,-0.9178255,0.00697986,0.1830671,38.57465,-19.64967,-14.92024,1027.192
5.594123648,1.329602,55.61726,3.002955,-0.9096642,0.04517164,0.2061873,38.57465,-19.64967,-14.92024,1027.192
5.614096769,1.147143,50.66639,0.934464,-0.9248138,0.07674477,0.1523221,39.26453,-19.99017,-12.21738,1027.192
5.634070036,0.2956707,44.98205,-2.594139,-1.009526,0.04797909,0.189169,39.26453,-19.99017,-12.21738,1027.192
5.654043262,1.086324,37.70854,-7.217825,-0.9786882,0.05475908,0.2050127,39.60929,-20.33701,-10.86807,1027.192
5.674016425,-0.8598996,32.94103,-11.53732,-0.9632835,0.06214183,0.1899586,39.60929,-20.33701,-10.86807,1027.192
5.693989713,-4.630708,29.02923,-15.30928,-0.986509,0.04739885,0.1819023,39.60929,-20.33701,-10.86807,1027.192
5.713962876,-7.550044,20.34992,-17.80363,-0.9864806,0.05524555,0.1589275,39.95256,-20.3302,-9.084985,1027.194
5.733935987,-8.036599,14.42109,-19.9938,-0.9947743,0.001545448,0.1511206,39.95256,-20.3302,-9.084985,1027.194
5.753909139,-7.550044,10.57041,-20.29799,-0.97936,0.0009889547,0.1743593,40.24435,-19.26615,-8.639791,1027.194
5.773882302,-7.671682,7.69768,-18.7162,-0.9568343,-0.04588488,0.174737,40.24435,-19.26615,-8.639791,1027.194
5.793855559,-7.91496,4.886071,-15.49179,-1.010841,-0.06754667,0.1738142,40.24435,-19.26615,-8.639791,1027.192
5.814002208,-6.090376,0.3019276,-12.08486,-1.018416,-0.05967623,0.1813449,40.59575,-18.90813,-8.632001,1027.192
5.833975527,-3.961694,-3.304266,-8.069556,-0.9878711,-0.07592735,0.1818631,40.59575,-18.90813,-8.632001,1027.192
5.853948639,-0.4949827,-7.766166,-2.715815,-1.002973,-0.05238601,0.1816089,40.94933,-18.25628,-9.050229,1027.192
5.873921593,2.971728,-13.02265,2.029547,-1.033575,-0.03599606,0.1581135,40.94933,-18.25628,-9.050229,1027.192
5.893894850,6.3168,-22.67991,5.984016,-1.064054,-0.01199078,0.1499386,40.94933,-18.25628,-9.050229,1027.192
5.913867982,9.479414,-35.69888,9.634295,-1.071931,-0.03504441,0.1727777,41.29886,-17.89778,-8.612901,1027.192
5.933841166,11.42564,-49.32907,12.61536,-1.048734,-0.02814813,0.2038088,41.29886,-17.89778,-8.612901,1027.192
5.953814443,11.18236,-60.33102,15.53558,-1.017792,-0.01370653,0.227314,40.95489,-18.55208,-10.40374,1027.192
5.973787554,10.08761,-71.02734,17.4824,-1.05593,0.01046132,0.2266674,40.95489,-18.55208,-10.40374,1027.192
5.996257386,8.019746,-88.08036,17.29988,-1.063193,0.04131662,0.2571827,40.95489,-18.55208,-10.40374,1027.192
6.016230455,5.769424,-104.2166,14.9272,-1.047873,0.02515927,0.3110529,39.96623,-18.5673,-11.76381,1027.192
6.036203639,2.485172,-117.7245,12.85871,-0.9786029,0.03080252,0.3428686,39.96623,-18.5673,-11.76381,1027.192
6.056176917,-1.893831,-129.0932,10.42519,-0.932095,0.06014968,0.3819584,38.9294,-19.64578,-15.77577,1027.192
6.076149986,-7.185127,-137.8947,5.55815,-0.9323504,0.03702602,0.3819511,38.9294,-19.64578,-15.77577,1027.192
6.096123337,-11.19921,-147.3075,0.08273234,-0.9093045,0.02846026,0.4206363,38.9294,-19.64578,-15.77577,1027.192
6.116096447,-13.20625,-155.3756,-5.514361,-0.8633356,0.003713385,0.4826861,36.83919,-19.3256,-19.35194,1027.194
6.136069684,-14.54428,-161.8545,-9.955534,-0.7395195,0.06928023,0.5613914,36.83919,-19.3256,-19.35194,1027.194
6.156042899,-17.22034,-162.1601,-12.75408,-0.7094379,-0.001250011,0.6155059,34.46334,-20.07102,-24.78466,1027.194
6.176016051,-19.34902,-159.3485,-15.97849,-0.6636584,-0.02553416,0.6009651,34.46334,-20.07102,-24.78466,1027.194
6.195989162,-17.46362,-158.6151,-17.56028,-0.6638759,-0.04875036,0.6162759,34.46334,-20.07102,-24.78466,1027.192
6.215962356,-14.36183,-158.065,-18.41201,-0.6023226,-0.04280574,0.6326427,31.38498,-19.05963,-29.65107,1027.192
6.235935572,-10.89511,-153.7864,-18.35117,-0.5407123,-0.05283213,0.7409135,31.38498,-19.05963,-29.65107,1027.192
6.255908766,-8.097419,-144.1903,-17.07358,-0.4716125,-0.06260467,0.7727244,27.94993,-18.11052,-33.23313,1027.192
6.275881908,-6.637751,-133.6162,-14.21419,-0.4258045,-0.09487433,0.8041355,27.94993,-18.11052,-33.23313,1027.192
6.295855061,-4.144152,-122.1864,-10.74643,-0.4026546,-0.07994626,0.7815555,27.94993,-18.11052,-33.23313,1027.192
6.315828068,0.964685,-115.4019,-6.852797,-0.372034,-0.09638247,0.8127101,23.4618,-17.47032,-36.89075,1027.192
6.335801335,3.032548,-105.3779,-1.864083,-0.3328548,-0.04393417,0.8899718,23.4618,-17.47032,-36.89075,1027.19
6.355774602,6.134341,-91.56431,0.8127881,-0.3484678,-0.06664016,0.8897029,20.36971,-16.8087,-38.69324,1027.19
6.375747557,9.661872,-82.82388,2.759603,-0.3404201,-0.02817075,0.8668687,20.36971,-16.8087,-38.69324,1027.192
6.395720699,13.98006,-76.83393,4.523904,-0.3328075,-0.03613374,0.8746561,20.36971,-16.8087,-38.69324,1027.192
6.415693862,18.66316,-71.4552,4.463067,-0.3098563,-0.04446815,0.875046,16.57257,-17.21583,-40.086,1027.192
6.435667181,21.52167,-66.74881,4.037201,-0.3020734,-0.03701537,0.8828383,16.57257,-17.21583,-40.086,1027.192
6.455640313,24.13691,-64.18169,3.124631,-0.2477353,0.007584994,0.9144047,13.82446,-17.60741,-40.54765,1027.192
6.478110114,24.44101,-62.04243,2.272899,-0.2711406,-0.03046674,0.9369773,13.82446,-17.60741,-40.54765,1027.192
6.498083433,21.64331,-60.08653,-1.134027,-0.2781005,0.03131265,0.9521842,13.82446,-17.60741,-40.54765,1027.192
6.518056617,17.93332,-60.5755,-5.392685,-0.2316777,0.06878414,0.9223449,11.78024,-17.98979,-41.43171,1027.192
6.538029811,13.43268,-62.16467,-9.955534,0.01852525,-0.1836031,0.7351057,11.78024,-17.98979,-41.43171,1027.192
6.558003016,10.39171,-63.99833,-13.30162,-0.2481989,-0.01502968,0.8301476,9.319815,-19.37705,-41.04329,1027.192
6.577976148,10.63498,-73.9612,-14.15335,-0.1563371,-0.03267389,0.7857577,9.319815,-19.37705,-41.04329,1027.19
6.597949331,9.175316,-83.4351,-12.08486,-0.06409688,-0.03541131,0.8256224,9.319815,-19.37705,-41.04329,1027.19
6.617922359,5.465327,-86.85793,-9.529668,-0.09380933,0.04213274,0.8863963,7.274114,-19.40578,-41.49359,1027.192
6.637895647,1.816158,-88.81383,-10.74643,-0.1084195,0.08030323,1.016351,7.274114,-19.40578,-41.49359,1027.192
6.657868758,-4.509069,-89.18056,-12.32821,-0.03156511,0.05430456,1.147856,4.17274,-20.1549,-41.53348,1027.192
6.677841963,-14.17937,-82.02929,-11.47648,0.05270316,0.01291264,1.241191,4.17274,-20.1549,-41.53348,1027.192
6.697815115,-23.42393,-68.33798,-9.77302,0.1296899,0.0182545,1.288456,4.17274,-20.1549,-41.53348,1027.192
6.717788080,-29.5667,-54.21882,-7.096149,0.1524898,-0.005541944,1.2965,1.425666,-19.8402,-42.04802,1027.192
6.737761441,-30.23571,-39.79405,-3.567546,0.1750249,-0.06035503,1.33517,1.425666,-19.8402,-42.04802,1027.194
6.757734677,-27.86375,-23.53562,2.637927,0.2057496,-0.06912963,1.373986,-1.674172,-19.17661,-42.07099,1027.194
6.777707726,-25.43097,-4.343338,9.999323,0.2515007,-0.08542826,1.313493,-1.674172,-19.17661,-42.07099,1027.194
6.797680712,-24.21458,15.09343,19.30753,0.2133242,-0.06116787,1.297529,-1.674172,-19.17661,-42.07099,1027.194
6.817653937,-22.14672,32.5743,27.88569,0.1513356,-0.08188047,1.17393,-2.022227,-18.18126,-42.49211,1027.194
6.837627152,-20.50459,44.0041,36.82887,0.1202041,-0.09585936,1.073834,-2.022227,-18.18126,-42.49211,1027.194
6.857600346,-15.09166,52.3778,44.98116,0.06585637,-0.1166883,0.9350482,-1.315697,-17.46617,-43.33561,1027.194
6.877573457,-7.063488,56.71746,51.06496,-0.04946762,-0.1052925,0.8411801,-1.315697,-17.46617,-43.33561,1027.194
6.897546704,4.127298,58.06214,53.98518,-0.01822287,-0.02826238,0.7115235,-1.315697,-17.46617,-43.33561,1027.194
6.917519773,13.37186,50.60527,57.27043,-0.01069549,-0.02810104,0.6503818,-0.9639168,-16.75497,-43.32359,1027.194
6.937493061,22.8597,43.69849,58.30468,-0.04904221,-0.01925642,0.6344122,-0.9639168,-16.75497,-43.32359,1027.194
6.957466276,31.13115,29.5182,58.85222,-0.1178297,-0.002331269,0.6945125,1.083653,-16.72673,-43.30284,1027.194
6.977439346,38.30785,14.78782,53.25512,-0.1407147,-0.002074928,0.7553927,1.083653,-16.72673,-43.30284,1027.192
6.999909198,35.08442,0.9131467,49.78736,-0.2091994,0.01410987,0.9380383,1.430159,-17.42729,-42.44866,1027.192
7.019882340,29.36739,0.2408056,40.66166,-0.1392859,0.04984432,1.092409,1.430159,-17.42729,-42.44866,1027.192
7.039855524,13.91924,3.296901,32.20518,-0.1623506,0.02679191,1.183918,1.430159,-17.42729,-42.44866,1027.192
7.059828718,-1.711372,3.663633,24.0529,-0.1625587,0.01146868,1.168595,0.7248468,-18.49597,-41.97756,1027.192
7.079801861,-16.55133,3.663633,14.86636,-0.1774624,0.07410472,1.076444,0.7248468,-18.49597,-41.97756,1027.192
7.099775149,-21.53852,-0.9816328,2.090385,-0.0838697,0.2342972,0.9402018,-0.330442,-18.8632,-41.56292,1027.192
7.119748333,-18.55837,-10.45553,-10.3814,-0.1764787,0.1666919,1.061155,-0.330442,-18.8632,-41.56292,1027.192
7.139721496,-15.45658,-6.910459,-30.15374,-0.1778028,0.02744095,1.145361,-0.330442,-18.8632,-41.56292,1027.192
7.159694669,-16.00395,-4.526704,-46.94503,-0.2396874,-0.001442257,1.098351,0.02308989,-18.50572,-42.04604,1027.194
7.179667738,-16.18641,-6.115874,-63.2496,-0.2399617,-0.02451965,1.090684,0.02308989,-18.50572,-42.04604,1027.194
7.199640995,-15.88231,-7.460556,-77.91155,-0.170635,-0.00318299,1.07655,0.7277508,-17.79015,-42.46,1027.192
7.219614137,-15.69985,-7.705044,-90.38334,-0.1864845,-0.03322669,1.015007,0.7277508,-17.79015,-42.46,1027.192
7.239587373,-12.84134,-7.766166,-101.3342,-0.1026042,-0.08158615,0.9857942,0.7277508,-17.79015,-42.46,1027.192
7.259560578,-7.185127,-7.27719,-109.3648,-0.07250385,-0.1363304,0.9786412,1.430159,-17.42729,-42.44866,1027.192
7.279533595,-0.9207191,-4.71007,-115.3269,-0.02662025,-0.152953,0.9717619,1.430159,-17.42729,-42.44866,1027.192
7.299506779,4.248937,-4.098851,-116.7262,0.004501691,-0.1152026,0.9646382,1.430159,-17.42729,-42.44866,1027.192
7.319480046,8.445482,-0.9205108,-117.3954,-0.003177108,-0.1149938,0.9645074,1.78304,-17.42293,-42.87464,1027.192
7.339453168,12.58121,-0.3704135,-116.6045,0.004369281,-0.1307109,0.9799514,1.78304,-17.42293,-42.87464,1027.192
7.359426435,16.04792,-0.6760231,-113.9276,0.06544013,-0.1473347,0.9044021,3.830994,-17.0415,-42.84966,1027.192
7.379399452,19.87955,-4.159973,-110.5816,0.03465873,-0.1542535,0.9115356,3.830994,-17.0415,-42.84966,1027.192
7.399372636,22.19069,-6.849337,-110.0948,-0.02618516,-0.1065206,0.9411403,3.830994,-17.0415,-42.84966,1027.186
7.419345872,20.79184,-6.971581,-116.9087,-0.1480243,-0.02651672,1.008004,4.884414,-16.6738,-42.83475,1027.186
7.439318900,16.96021,-9.233091,-130.0497,-0.2157051,0.09061095,1.068136,4.884414,-16.6738,-42.83475,1027.188
7.461788804,13.61514,-17.42343,-145.3809,-0.1858319,0.03642192,0.9690742,6.578719,-17.0031,-42.39225,1027.188
7.481761957,6.195161,-24.63581,-156.7576,-0.1307558,0.1267143,1.092564,6.578719,-17.0031,-42.39225,1027.188
7.501735016,-1.95465,-27.81416,-169.8377,-0.05393937,0.1166404,1.139824,8.334163,-16.62571,-42.37022,1027.188
7.521708325,-14.72674,-27.44742,-179.146,-0.0004244163,0.1236731,1.010538,8.334163,-16.62571,-42.37022,1027.19
7.541681404,-23.72803,-29.77006,-186.6898,0.006980056,0.1003869,1.003002,8.334163,-16.62571,-42.37022,1027.19
7.561654661,-34.85799,-29.03659,-188.88,0.1135279,0.01272263,0.997147,9.68273,-15.54809,-42.77344,1027.19
7.581627762,-45.07567,-25.4304,-189.0017,0.143666,-0.04211422,1.005312,9.68273,-15.54809,-42.77344,1027.19
7.601600987,-49.57631,-19.99055,-190.401,0.1512123,-0.04199915,0.9518293,10.73988,-13.47384,-43.16763,1027.19
7.621574067,-50.18451,-15.28416,-191.4352,0.1738137,-0.08905808,0.9828433,10.73988,-13.47384,-43.16763,1027.19
7.641547240,-50.73188,-13.14489,-186.8115,0.1503042,-0.1189392,0.9288277,10.73988,-13.47384,-43.16763,1027.192
7.661520529,-45.19731,-15.71202,-181.2753,0.1425591,-0.1106523,0.8674268,12.15396,-9.629869,-44.45756,1027.192
7.681493629,-38.02061,-17.91241,-174.9481,0.1959703,-0.158778,0.9372592,12.15396,-9.629869,-44.45756,1027.192
7.701466730,-36.07438,-11.18899,-166.37,0.1734164,-0.1197508,0.9598563,12.80087,-6.501253,-44.41367,1027.192
7.721439913,-30.47899,2.563438,-165.3966,0.150011,-0.1419703,0.9135022,12.80087,-6.501253,-44.41367,1027.19
7.741413191,-23.30229,10.44817,-159.1302,0.2416268,-0.1906774,0.9073978,12.80087,-6.501253,-44.41367,1027.19
7.761386302,-15.45658,14.91007,-144.59,0.1725744,-0.1889367,0.929198,13.15741,-3.377216,-44.86365,1027.188
7.781359611,-4.995625,17.84392,-133.8825,0.1498407,-0.1573861,0.9134973,13.15741,-3.377216,-44.86365,1027.188
7.801332545,4.248937,21.75572,-128.9546,0.1503043,-0.1347714,0.9977545,13.86283,-0.2477932,-44.81917,1027.188
7.821305749,6.499258,32.69654,-124.0876,0.1577372,-0.1502109,0.967244,13.86283,-0.2477932,-44.81917,1027.188
7.841278964,10.87826,37.40293,-118.7338,0.1423323,-0.1575937,0.9822981,13.86283,-0.2477932,-44.81917,1027.192
7.861252221,15.13563,40.39791,-115.9961,0.08875094,-0.140716,0.9813876,15.26511,1.8328,-43.85982,1027.192
7.881225290,16.10874,47.42693,-116.9695,0.08962119,-0.06368346,0.9890711,15.26511,1.8328,-43.85982,1027.192
7.901198433,12.88531,53.23351,-116.057,0.08218838,-0.04824393,1.019581,16.61142,2.557717,-43.83772,1027.192
7.923668285,11.97301,53.96697,-112.7109,0.09764054,-0.03306075,0.9892117,16.61142,2.557717,-43.83772,1027.192
7.943641355,12.21629,49.93293,-106.0187,0.07429204,-0.0712513,1.034762,16.61142,2.557717,-43.83772,1027.192
7.963614611,11.91219,44.5542,-100.9083,0.06691591,-0.04011837,1.019322,17.65935,3.280095,-42.4686,1027.192
7.983587816,10.45253,46.38786,-101.9426,0.1288382,0.004504518,1.012724,17.65935,3.280095,-42.4686,1027.192
8.003560854,6.25598,49.0161,-99.26569,0.120412,-0.04887168,0.9513038,19.4137,4.364315,-42.00858,1027.192
8.023534090,6.377619,41.55922,-91.17423,-0.03288013,-0.02955676,0.9946475,19.4137,4.364315,-42.00858,1027.188
8.043507253,4.917952,29.76269,-83.2653,-0.05542466,0.01736335,0.9866108,19.4137,4.364315,-42.00858,1027.188
8.063480416,-0.06924627,24.50621,-77.72904,-0.1012042,0.0416475,1.001151,20.40718,5.37925,-41.49561,1027.188
8.083453569,-7.367585,22.2447,-69.3334,-0.1245149,0.01919663,0.9930928,20.40718,5.37925,-41.49561,1027.188
8.103426784,-9.861183,17.04933,-58.4434,-0.09415919,-0.012424,0.9859471,21.4584,7.160616,-40.6047,1027.186
8.123399843,-8.766433,7.758801,-42.50385,-0.07876374,-0.01293422,1.001527,21.4584,7.160616,-40.6047,1027.186
8.143372995,-6.698571,3.174658,-27.47687,-0.02502156,-0.02228907,1.033076,21.4584,7.160616,-40.6047,1027.184
8.163346179,-7.063488,1.341,-12.38905,-0.03282335,-0.02969557,1.017625,21.81127,8.872486,-40.5807,1027.184
8.183319165,-6.576931,0.2408056,1.66452,-0.04833229,-0.04473995,1.025017,21.81127,8.872486,-40.5807,1027.187
8.203292412,-3.596776,-2.265193,15.4139,-0.06368988,-0.04432227,1.024756,21.46103,9.573999,-40.57579,1027.187
8.223265679,0.1132122,-4.587826,26.91228,-0.03293683,-0.04525017,1.040597,21.46103,9.573999,-40.57579,1027.187
8.243238779,2.72845,-5.871386,35.61211,-0.009891011,-0.03798371,1.010355,21.46103,9.573999,-40.57579,1027.187
8.263211994,5.16123,-6.604849,42.91267,0.004955791,-0.08464871,1.010602,21.81204,9.578842,-40.57224,1027.187
8.283185158,8.68876,-8.560751,48.93563,0.02767059,-0.116153,1.018644,21.81204,9.578842,-40.57224,1027.187
8.303158268,11.72973,-11.55573,55.01942,-0.06370881,-0.044276,1.017097,21.46213,8.867167,-41.0138,1027.183
8.323131504,13.98006,-16.99557,61.52909,-0.05598274,-0.03668441,1.001912,21.46213,8.867167,-41.0138,1027.183
8.343104594,14.46661,-23.10777,69.68137,-0.05593545,-0.02888397,0.986596,21.46213,8.867167,-41.0138,1027.183
8.363077893,14.64907,-29.64781,78.98959,-0.02527704,-0.02958051,0.964142,20.7605,7.503159,-41.46667,1027.183
8.383050858,13.43268,-35.27103,89.45372,-0.02484187,0.001019678,1.002447,20.7605,7.503159,-41.46667,1027.184
8.403024125,11.42564,-35.76001,96.87595,0.006100377,0.01546128,1.025952,20.75846,5.384023,-41.55341,1027.184
8.425493988,7.289912,-35.57664,105.5758,0.02901379,0.007219423,1.011024,20.75846,5.384023,-41.55341,1027.186
8.445467151,5.404508,-37.83815,114.9448,0.04439031,0.006755473,1.018945,20.75846,5.384023,-41.55341,1027.186
8.465440262,4.857132,-38.44937,123.888,0.05973841,0.01427704,0.9809134,19.41518,4.010661,-42.44235,1027.188
8.485413415,3.94484,-34.84317,131.6144,0.1135089,0.0127689,0.9894879,19.41518,4.010661,-42.44235,1027.188
8.505386547,5.282868,-31.66483,140.9835,0.1514205,-0.02667592,0.9671524,18.36198,1.876523,-42.96931,1027.19
8.525359720,7.958926,-32.52054,154.6112,0.2053802,-0.01281456,0.9833909,18.36198,1.876523,-42.96931,1027.19
8.545332915,10.51334,-30.38128,167.9955,0.2443323,0.02435678,1.03767,18.36198,1.876523,-42.96931,1027.194
8.565306109,9.418594,-22.74104,177.3646,0.1221432,0.08146832,1.066231,17.30857,-0.1986841,-43.4342,1027.194
8.585279282,11.304,-19.07372,182.2925,0.1208756,-0.01042479,0.9666342,17.30857,-0.1986841,-43.4342,1027.196
8.605252383,16.71693,-20.78513,186.7336,0.1442903,0.0196877,0.9823545,16.25478,-2.627069,-43.90332,1027.196
8.625225546,20.85266,-21.94645,191.0531,0.1143319,0.08200106,1.012487,16.25478,-2.627069,-43.90332,1027.198
8.645198813,20.91348,-24.20796,198.4754,0.1531326,0.1195426,1.005494,16.25478,-2.627069,-43.90332,1027.198
8.665172039,19.39299,-19.19596,199.3271,0.2134657,0.02556231,0.9758748,13.85319,-5.426717,-43.96076,1027.192
8.685145139,24.13691,-5.688021,195.6768,0.1514299,-0.01878294,0.9365185,13.85319,-5.426717,-43.96076,1027.192
8.705118323,28.94165,-2.387437,194.4601,0.1282894,-0.02581804,0.9284647,11.80223,-8.5747,-44.01888,1027.193
8.725091517,35.75343,-1.592852,195.0685,0.1365169,0.0201279,0.9439283,11.80223,-8.5747,-44.01888,1027.193
8.745064545,37.27392,-3.487631,197.7453,0.1524231,0.065865,0.9595227,11.80223,-8.5747,-44.01888,1027.195
8.765037854,38.24703,-0.4315355,197.1369,0.1441957,0.01991906,0.9440591,10.04448,-11.07116,-44.06628,1027.195
8.785010902,42.62603,4.824949,192.3916,0.09800942,0.005617504,0.9662467,10.04448,-11.07116,-44.06628,1027.195
8.804984076,43.96406,12.64855,185.7602,0.1066057,0.09024169,0.9587453,7.989897,-13.86494,-43.19973,1027.197
8.824957249,41.71374,22.06133,179.2506,0.1292259,0.05896872,0.9284917,7.989897,-13.86494,-43.19973,1027.197
8.844930506,41.77456,24.2006,176.087,0.09854856,0.05971153,0.9432867,7.989897,-13.86494,-43.19973,1027.197
8.864903554,42.01784,27.19557,170.3682,0.08336123,0.07554498,0.94303,5.586438,-16.66411,-42.82764,1027.197
8.884876821,42.99095,29.45708,160.1474,0.02214846,0.08459967,0.9955997,5.586438,-16.66411,-42.82764,1027.197
8.907346538,39.7067,33.30776,148.0407,0.0530245,0.09128711,1.026762,3.472839,-18.45763,-41.58151,1027.197
8.927319774,33.25983,35.26366,137.7591,-0.02401898,0.08608407,0.9565196,3.472839,-18.45763,-41.58151,1027.197
8.947293000,30.0364,36.11937,125.3481,-0.07758138,0.1029154,0.9632681,3.472839,-18.45763,-41.58151,1027.197
8.967266101,26.87379,32.14645,112.633,-0.1386617,0.1274785,1.000525,2.123301,-20.18267,-41.12469,1027.201
8.987239274,20.9743,26.76772,97.78852,-0.1922336,0.1364169,1.037907,2.123301,-20.18267,-41.12469,1027.201
9.007212312,16.53447,22.36694,78.68539,-0.1844791,0.1518551,0.9997472,0.7195859,-21.61523,-41.58538,1027.201
9.027185579,11.48646,17.17158,60.00814,-0.1688377,0.1665756,1.045968,0.7195859,-21.61523,-41.58538,1027.201
9.047158805,-0.4341632,12.2207,43.7644,-0.1462648,0.1275022,1.03103,0.7195859,-21.61523,-41.58538,1027.203
9.067131874,-9.00971,7.330948,28.91993,-0.1542274,0.09674068,1.053867,0.3597431,-22.61877,-39.8214,1027.203
9.087105172,-15.63904,1.157634,14.98804,-0.1230865,0.1344448,1.054402,0.3597431,-22.61877,-39.8214,1027.203
9.107078471,-21.66016,-3.1209,1.482006,-0.1307748,0.1425928,1.015978,-0.337956,-22.33516,-40.74544,1027.203
9.127051582,-26.58654,-10.0888,-9.894696,-0.03953733,0.06314673,0.9945461,-0.337956,-22.33516,-40.74544,1027.203
9.147024672,-30.66145,-15.83426,-16.16101,0.02870161,-0.01576542,0.9880396,-0.337956,-22.33516,-40.74544,1027.203
9.166997950,-31.99948,-19.80718,-20.84553,0.03649389,-0.000419673,0.965198,-0.9788408,-21.63815,-41.17304,1027.204
9.186971154,-34.37144,-23.96347,-22.85318,0.08216937,-0.03236544,0.9429957,-0.9788408,-21.63815,-41.17304,1027.204
9.206944161,-34.67553,-26.65284,-24.8,0.1286868,-0.01095753,1.020378,-0.6836944,-20.92824,-41.59116,1027.204
9.226917397,-16.73379,-16.5066,-23.70492,0.8088092,-0.5122917,1.836068,-0.6836944,-20.92824,-41.59116,1027.204
9.246890404,-1.893831,15.03231,14.50133,0.1758566,0.1434279,0.7761219,-0.6836944,-20.92824,-41.59116,1027.204
9.266863609,4.188118,17.11045,16.63066,0.01381703,0.0151599,1.041401,-2.376581,-19.53947,-42.08234,1027.204
9.286836678,-2.927762,11.97621,13.89295,-0.1012609,0.0259541,1.047101,-2.376581,-19.53947,-42.08234,1027.2
9.306809903,2.241894,12.03734,2.151223,0.0519272,-0.001022438,0.9960959,-0.9727993,-19.52004,-42.00674,1027.2
9.326783317,-4.509069,5.008315,0.2652463,0.05906685,-0.05532531,1.019187,-0.9727993,-19.52004,-42.00674,1027.2
9.346756198,3.884021,11.6706,0.5694362,0.1284124,-0.0182027,0.9437853,-0.9727993,-19.52004,-42.00674,1027.2
9.366729393,9.965969,14.48221,4.888932,0.01392092,0.05448595,0.9112093,-1.323928,-19.87813,-42.07589,1027.2
9.386702847,5.951883,2.991292,2.333737,-0.2181331,0.4025399,1.780399,-1.323928,-19.87813,-42.07589,1027.2
9.409172763,-2.623665,-0.6149012,-11.29397,0.1882725,-0.1426906,0.8605427,-0.6796379,-19.16289,-42.06091,1027.202
9.429145592,1.086324,3.23578,-0.2214575,-0.0554435,0.001577402,1.047878,-0.6796379,-19.16289,-42.06091,1027.202
9.449118797,0.7214071,-2.693047,-2.898329,0.05125556,-0.05479256,0.9654424,-0.6796379,-19.16289,-42.06091,1027.2
9.469092002,4.309757,-3.854363,0.1435703,-0.01759824,-0.02978935,0.9642727,-0.6825423,-19.86871,-41.57847,1027.2
9.489065321,6.25598,-6.360362,1.36033,0.03646554,-0.008266375,0.9881728,-0.6825423,-19.86871,-41.57847,1027.199
9.509038338,1.268782,-3.304266,2.212061,0.006932607,0.1242509,0.8804643,0.02135086,-19.8595,-42.00089,1027.199
9.529011553,0.4173096,-1.592852,-0.5864854,0.1058113,-0.002808212,1.050625,0.02135086,-19.8595,-42.00089,1027.199
9.548984675,0.3564901,0.1796837,1.299492,0.08300186,0.02892748,1.004288,0.02135086,-19.8595,-42.00089,1027.199
9.568957858,0.4173096,0.7909029,0.2652463,0.09870941,0.06723433,0.9739254,-0.6807899,-20.22243,-42.0736,1027.197
9.588930803,-0.3733437,1.585488,0.4477602,0.07506766,0.006012661,1.00415,-0.6807899,-20.22243,-42.0736,1027.197
9.608904070,-0.7382606,2.441195,1.238654,0.0450241,0.06061814,1.03428,-0.3293939,-19.86441,-42.06581,1027.199
9.628877233,-0.3733437,0.7909029,0.4477602,0.04469299,0.03767956,1.003636,-0.3293939,-19.86441,-42.06581,1027.199
9.648850448,-0.4341632,0.7909029,0.3260843,0.043993,-0.02393726,0.9959577,-0.3293939,-19.86441,-42.06581,1027.199
9.668823632,-0.008426782,0.1796837,1.177816,0.05212582,0.02224004,0.973126,-0.9765372,-19.51909,-41.14766,1027.197
9.688796983,-0.1908853,0.5464152,-0.2822955,0.0596722,0.006522882,0.98857,-0.9765372,-19.51909,-41.14766,1027.197
9.708769791,-0.2517048,0.1796837,0.1435703,0.03650339,-0.008358919,1.003491,-0.6829262,-20.22188,-41.5827,1027.197
9.728743027,-0.9207191,0.6075372,0.08273234,0.05951136,-0.0009999173,0.9579313,-0.6829262,-20.22188,-41.5827,1027.197
9.748716149,1.876977,-1.470608,0.3260843,-0.01716298,-0.01502138,1.071505,-0.6829262,-20.22188,-41.5827,1027.199
9.768689468,0.4781291,-0.1870478,-0.4648094,0.03696692,0.03008797,1.018821,-0.9731832,-19.87322,-42.01097,1027.199
9.788662725,0.05239271,-0.1259259,-1.924921,0.1061896,0.04376301,0.997026,-0.9731832,-19.87322,-42.01097,1027.199
9.808635617,-0.1908853,0.6686591,0.8736261,0.03713718,0.04550374,1.018826,-0.6821585,-19.51553,-41.57424,1027.199
9.828608884,-0.008426782,0.3019276,0.995302,0.0209566,-0.02331075,0.9955654,-0.6821585,-19.51553,-41.57424,1027.199
9.848582068,-0.008426782,-0.003682045,-1.499055,0.06736993,0.006267772,0.9963599,-0.6821585,-19.51553,-41.57424,1027.199
9.868555325,0.05239271,-0.06480397,1.725358,0.03729794,0.06885877,0.9805382,-0.9746685,-19.51956,-41.5772,1027.199
9.888528383,0.05239271,0.1185618,-1.438217,0.1054045,-0.0255617,0.989345,-0.9746685,-19.51956,-41.5772,1027.199
9.910998236,0.1132122,0.7909029,1.36033,-0.009001824,0.03900262,1.025698,-0.9731832,-19.87322,-42.01097,1027.199
9.930971389,0.1132122,-0.2481697,-0.8906752,0.04454165,0.02221752,1.011291,-0.9731832,-19.87322,-42.01097,1027.199
9.950944385,0.05239271,-0.003682045,0.4477602,0.09042525,0.005594983,1.004411,-0.9731832,-19.87322,-42.01097,1027.2
9.970917798,0.2956707,-0.003682045,0.3260843,0.03714661,0.05339672,0.9881924,-1.326064,-19.87758,-41.58499,1027.2
9.990890794,-0.1908853,0.5464152,-0.2822955,0.05207854,0.01443961,0.9884417,-1.326064,-19.87758,-41.58499,1027.2
10.010864082,0.1740317,-0.1259259,0.8127881,0.02131606,0.007474532,1.003234,-0.9754362,-20.22592,-41.58566,1027.2
10.030837475,0.1132122,-0.1259259,-0.7081613,0.0599276,0.02964654,0.9885774,-0.9754362,-20.22592,-41.58566,1027.2
10.050810242,-0.1300658,0.1185618,0.6302742,0.05228666,0.02976284,1.003765,-0.9754362,-20.22592,-41.58566,1027.2
10.070783478,0.1132122,0.5464152,-0.7689993,0.05971005,0.006430339,1.003888,-0.9746685,-19.51956,-41.5772,1027.2
10.090756641,-0.1300658,0.2408056,0.5694362,0.02148633,0.02289031,1.003239,-0.9746685,-19.51956,-41.5772,1027.2
10.110730085,0.05239271,-0.3704135,-0.2214575,0.05972898,0.006384067,1.011547,-0.6847949,-20.22141,-41.15316,1027.2
10.130702998,0.05239271,0.3630495,-0.09978159,0.0598614,0.02189238,0.996234,-0.6847949,-20.22141,-41.15316,1027.2
10.150676307,0.05239271,0.05743987,0.08273234,0.01389266,0.03080703,1.003111,-0.6847949,-20.22141,-41.15316,1027.2
10.170649366,0.2348512,-0.06480397,-0.3431335,0.04416327,-0.008521486,0.9959626,-1.328317,-20.23028,-41.15968,1027.2
10.190622519,-0.06924627,-0.003682045,0.3260843,0.05237179,0.03747072,1.003767,-1.328317,-20.23028,-41.15968,1027.2
10.210595952,0.1132122,-0.003682045,-0.4039715,0.05990867,0.02969281,0.9809183,-0.6804061,-19.86925,-42.06937,1027.2
10.230568793,-0.06924627,0.3630495,0.3869222,0.0443146,0.00694056,0.9883085,-0.6804061,-19.86925,-42.06937,1027.199
10.250542102,0.05239271,-0.06480397,-0.2214575,0.04441867,0.01460218,0.99597,-0.6804061,-19.86925,-42.06937,1027.199
10.270515181,0.3564901,0.7909029,0.1435703,0.04443759,0.01455591,1.003629,-0.9747853,-19.87281,-41.6428,1027.199
10.290488313,0.1132122,-0.1870478,0.08273234,0.05988032,0.02184611,1.003893,-0.9747853,-19.87281,-41.6428,1027.199
10.310461268,0.1132122,0.1185618,0.02189437,0.05228666,0.02976284,1.003765,-0.6804061,-19.86925,-42.06937,1027.199
10.330434650,0.2348512,-0.06480397,0.2652463,0.04441867,0.01460218,0.99597,-0.6804061,-19.86925,-42.06937,1027.199
10.350408042,-0.008426782,-0.1259259,-0.3431335,0.0598614,0.02189238,0.996234,-0.6804061,-19.86925,-42.06937,1027.197
10.370381121,0.1740317,0.2408056,0.1435703,0.04439974,0.01464845,0.9883109,-0.3319139,-20.21704,-41.57914,1027.197
10.390354232,0.1132122,0.4241714,-0.09978159,0.05979519,0.01413823,1.003891,-0.3319139,-20.21704,-41.57914,1027.199
10.410327239,-0.008426782,0.2408056,0.2652463,0.04435246,0.006848016,1.003627,-0.3315301,-19.86386,-41.57491,1027.199
10.432797217,0.1132122,-0.06480397,-0.2214575,0.04443759,0.01455591,1.003629,-0.3315301,-19.86386,-41.57491,1027.199
10.452770276,0.1132122,-0.003682045,0.02189437,0.0521826,0.02210122,0.9961032,-0.3315301,-19.86386,-41.57491,1027.199
10.472743616,-0.06924627,-0.003682045,-0.1606196,0.05214474,0.02219377,0.9807851,-0.9750524,-19.87274,-41.58143,1027.199
10.492716768,-0.008426782,-0.003682045,-0.03894361,0.04441867,0.01460218,0.99597,-0.9750524,-19.87274,-41.58143,1027.199
10.512690025,-0.008426782,-0.06480397,0.08273234,0.04435246,0.006848016,1.003627,0.01909781,-20.2122,-41.57558,1027.199
10.532663022,0.1132122,-0.1870478,0.1435703,0.0521826,0.02210122,0.9961032,0.01909781,-20.2122,-41.57558,1027.2
10.552636164,-0.06924627,0.1796837,0.1435703,0.03673987,0.01481101,0.9958392,0.01909781,-20.2122,-41.57558,1027.2
10.572609421,0.2956707,0.3019276,-0.2214575,0.0443146,0.00694056,0.9883085,-0.9754362,-20.22592,-41.58566,1027.2
10.592582365,0.1740317,0.1185618,0.1435703,0.02907999,0.01497358,1.003367,-0.9754362,-20.22592,-41.58566,1027.2
10.612555840,-0.008426782,0.05743987,-0.09978159,0.0445038,0.02231006,0.9959725,-0.3293939,-19.86441,-42.06581,1027.2
10.632528868,-0.008426782,0.1185618,-0.03894361,0.04438081,0.01469472,0.9806519,-0.3293939,-19.86441,-42.06581,1027.2
